{
  "about": {
    "generatedUsing": "TFL Designer Enterprise",
    "version": "1.5.3",
    "note": "The metadata provided herein has been generated using the TFL Designer Enterprise version 1.5.3. The representation of metadata fields available in this worksheet adheres to the CDISC Analysis Results Standard example available on the ARS GitHub repository."
  },
  "studyInfo": {
    "studyId": "testTotal",
    "studyTitle": "Safety and Efficacy of the Xanomeline Transdermal Therapeutic System (TTS) in Patients with Mild to Moderate Alzheimer’s Disease.",
    "phase": [
      "Phase II"
    ],
    "compoundUnderStudy": "Xanomeline Transdermal",
    "diseaseArea": "Neurology",
    "therapeuticArea": "Alzheimer's"
  },
  "name": "Clinical Study Report",
  "id": "CSR",
  "mainListOfContents": {
    "name": "List of Planned Analyses",
    "label": "LOPA",
    "contentsList": {
      "listItems": [
        {
          "level": 1,
          "name": "Baseline Demographic and Clinical Characteristics",
          "order": 1,
          "outputId": "Out_01",
          "sublist": {
            "listItems": [
              {
                "level": 2,
                "name": "Summary of Subjects by Treatment",
                "order": 1,
                "analysisId": "An_01",
                "sublist": {
                  "listItems": [
                    {
                      "level": 3,
                      "name": "Count of Subjects by Treatment",
                      "order": 2,
                      "analysisId": "An_02"
                    }
                  ]
                }
              },
              {
                "level": 2,
                "name": "Sex, n (%)",
                "order": 2,
                "sublist": {
                  "listItems": [
                    {
                      "level": 3,
                      "name": "Summary of Subjects by Treatment and Sex, n (%)",
                      "order": 1,
                      "analysisId": "An_03"
                    },
                    {
                      "level": 3,
                      "name": "Count of Sex, n (%) by Treatment",
                      "order": 2,
                      "analysisId": "An_04"
                    }
                  ]
                }
              },
              {
                "level": 2,
                "name": "Age, Years",
                "order": 3,
                "sublist": {
                  "listItems": [
                    {
                      "level": 3,
                      "name": "Summary of Subjects by Treatment and Age, Years",
                      "order": 1,
                      "analysisId": "An_05"
                    },
                    {
                      "level": 3,
                      "name": "Count of Age, Years by Treatment",
                      "order": 2,
                      "analysisId": "An_06"
                    }
                  ]
                }
              },
              {
                "level": 2,
                "name": "Age groups (years), n (%)",
                "order": 4,
                "sublist": {
                  "listItems": [
                    {
                      "level": 3,
                      "name": "Summary of Subjects by Treatment and Age groups (years), n (%)",
                      "order": 1,
                      "analysisId": "An_07"
                    },
                    {
                      "level": 3,
                      "name": "Count of Age groups (years), n (%) by Treatment",
                      "order": 2,
                      "analysisId": "An_08"
                    }
                  ]
                }
              },
              {
                "level": 2,
                "name": "Race, n (%)",
                "order": 5,
                "sublist": {
                  "listItems": [
                    {
                      "level": 3,
                      "name": "Summary of Subjects by Treatment and Race, n (%)",
                      "order": 1,
                      "analysisId": "An_09"
                    },
                    {
                      "level": 3,
                      "name": "Count of Race, n (%) by Treatment",
                      "order": 2,
                      "analysisId": "An_10"
                    }
                  ]
                }
              },
              {
                "level": 2,
                "name": "Ethnicity, n (%)",
                "order": 6,
                "sublist": {
                  "listItems": [
                    {
                      "level": 3,
                      "name": "Summary of Subjects by Treatment and Ethnicity, n (%)",
                      "order": 1,
                      "analysisId": "An_11"
                    },
                    {
                      "level": 3,
                      "name": "Count of Ethnicity, n (%) by Treatment",
                      "order": 2,
                      "analysisId": "An_12"
                    }
                  ]
                }
              },
              {
                "level": 2,
                "name": "Country of participation, n (%)",
                "order": 7,
                "sublist": {
                  "listItems": [
                    {
                      "level": 3,
                      "name": "Summary of Subjects by Treatment and Country of participation, n (%)",
                      "order": 1,
                      "analysisId": "An_13"
                    },
                    {
                      "level": 3,
                      "name": "Count of Country of participation, n (%) by Treatment",
                      "order": 2,
                      "analysisId": "An_14"
                    }
                  ]
                }
              },
              {
                "level": 2,
                "name": "Baseline Weight (kg)",
                "order": 8,
                "sublist": {
                  "listItems": [
                    {
                      "level": 3,
                      "name": "Summary of Subjects by Treatment and Baseline Weight (kg)",
                      "order": 1,
                      "analysisId": "An_15"
                    },
                    {
                      "level": 3,
                      "name": "Count of Baseline Weight (kg) by Treatment",
                      "order": 2,
                      "analysisId": "An_16"
                    }
                  ]
                }
              },
              {
                "level": 2,
                "name": "Baseline Height (cm)",
                "order": 9,
                "sublist": {
                  "listItems": [
                    {
                      "level": 3,
                      "name": "Summary of Subjects by Treatment and Baseline Height (cm)",
                      "order": 1,
                      "analysisId": "An_17"
                    },
                    {
                      "level": 3,
                      "name": "Count of Baseline Height (cm) by Treatment",
                      "order": 2,
                      "analysisId": "An_18"
                    }
                  ]
                }
              },
              {
                "level": 2,
                "name": "Baseline BMI (kg/m^2)",
                "order": 10,
                "sublist": {
                  "listItems": [
                    {
                      "level": 3,
                      "name": "Summary of Subjects by Treatment and Baseline BMI (kg/m^2)",
                      "order": 1,
                      "analysisId": "An_19"
                    },
                    {
                      "level": 3,
                      "name": "Count of Baseline BMI (kg/m^2) by Treatment",
                      "order": 2,
                      "analysisId": "An_20"
                    }
                  ]
                }
              },
              {
                "level": 2,
                "name": "Duration of Disease (Months)",
                "order": 11,
                "sublist": {
                  "listItems": [
                    {
                      "level": 3,
                      "name": "Summary of Subjects by Treatment and Duration of Disease (Months)",
                      "order": 1,
                      "analysisId": "An_21"
                    },
                    {
                      "level": 3,
                      "name": "Count of Duration of Disease (Months) by Treatment",
                      "order": 2,
                      "analysisId": "An_22"
                    }
                  ]
                }
              }
            ]
          }
        }
      ]
    }
  },
  "otherListsOfContents": [
    {
      "name": "List of Planned Outputs",
      "label": "LOPO",
      "contentsList": {
        "listItems": [
          {
            "level": 1,
            "name": "Baseline Demographic and Clinical Characteristics",
            "order": 1,
            "outputId": "Out_01"
          }
        ]
      }
    }
  ],
  "referenceDocuments": [],
  "terminologyExtensions": [
    {
      "id": "TermEx01",
      "enumeration": "AnalysisPurposeEnum",
      "sponsorTerms": [
        {
          "id": "TermEx01_01",
          "submissionValue": "POPULATION SUMMARY",
          "description": "Summary statistics describing the study population(s)."
        }
      ]
    }
  ],
  "analysisOutputCategorizations": [
    {
      "id": "ANSET",
      "subCategorizations": [
        {
          "id": "ANSET_01_ANINT",
          "label": "Safety Analysis Of Interest",
          "categories": [
            {
              "id": "ANSET_01_ANINT_01",
              "label": "Vital Signs"
            },
            {
              "id": "ANSET_01_ANINT_02",
              "label": "Demographics"
            },
            {
              "id": "ANSET_01_ANINT_03",
              "label": "Adverse Events"
            },
            {
              "id": "ANSET_01_ANINT_04",
              "label": "Laboratory Test Results"
            }
          ]
        }
      ],
      "label": "Analysis Sets",
      "categories": [
        {
          "id": "ANSET_01",
          "label": "Safety"
        }
      ]
    }
  ],
  "analysisSets": [
    {
      "level": 1,
      "order": 1,
      "id": "AnalysisSet_01",
      "name": "Safety Population",
      "description": "All patients randomized and known to have taken at least one dose of randomized drug.",
      "condition": {
        "dataset": "ADSL",
        "variable": "SAFFL",
        "comparator": "EQ",
        "value": [
          "Y"
        ]
      }
    },
    {
      "level": 1,
      "order": 1,
      "id": "AnalysisSet_02",
      "name": "All Subjects",
      "condition": {
        "dataset": "ADSL",
        "variable": "ARM",
        "comparator": "NE"
      }
    },
    {
      "level": 1,
      "order": 1,
      "id": "AnalysisSet_03",
      "name": "ITT Population",
      "description": "All patients randomized.",
      "condition": {
        "dataset": "ADSL",
        "variable": "ITTFL",
        "comparator": "EQ",
        "value": [
          "Y"
        ]
      }
    }
  ],
  "analysisGroupings": [
    {
      "name": "Treatment",
      "id": "AnlsGrouping_01_Trt01An",
      "dataDriven": false,
      "groupingDataset": "ADSL",
      "groupingVariable": "TRT01AN",
      "groups": [
        {
          "level": 1,
          "order": 1,
          "id": "AnlsGrouping_01_Trt01An_01",
          "name": "Xanomeline Low Dose \r\n(N=XX)\r\nn (%)",
          "condition": {
            "dataset": "ADSL",
            "variable": "TRT01AN",
            "comparator": "EQ",
            "value": [
              "1"
            ]
          }
        },
        {
          "level": 1,
          "order": 2,
          "id": "AnlsGrouping_01_Trt01An_02",
          "name": "Xanomeline High Dose \r\n(N=XX)\r\nn (%)",
          "condition": {
            "dataset": "ADSL",
            "variable": "TRT01AN",
            "comparator": "EQ",
            "value": [
              "2"
            ]
          }
        },
        {
          "level": 1,
          "order": 3,
          "id": "AnlsGrouping_01_Trt01An_03",
          "name": "Placebo \r\n(N=XX)\r\nn (%)",
          "condition": {
            "dataset": "ADSL",
            "variable": "TRT01AN",
            "comparator": "EQ",
            "value": [
              "3"
            ]
          }
        }
      ]
    },
    {
      "name": "Analysis Sex",
      "id": "AnlsGrouping_02_Asex",
      "label": "Sex, n (%)",
      "dataDriven": false,
      "groupingDataset": "ADSL",
      "groupingVariable": "ASEX",
      "groups": [
        {
          "level": 1,
          "order": 1,
          "id": "AnlsGrouping_02_Asex_01",
          "name": "Male",
          "label": "Male",
          "condition": {
            "dataset": "ADSL",
            "variable": "ASEX",
            "comparator": "EQ",
            "value": [
              "Male"
            ]
          }
        },
        {
          "level": 1,
          "order": 2,
          "id": "AnlsGrouping_02_Asex_02",
          "name": "Female",
          "label": "Female",
          "condition": {
            "dataset": "ADSL",
            "variable": "ASEX",
            "comparator": "EQ",
            "value": [
              "Female"
            ]
          }
        },
        {
          "level": 1,
          "order": 3,
          "id": "AnlsGrouping_02_Asex_03",
          "name": "Intersex",
          "label": "Intersex",
          "condition": {
            "dataset": "ADSL",
            "variable": "ASEX",
            "comparator": "EQ",
            "value": [
              "Intersex"
            ]
          }
        },
        {
          "level": 1,
          "order": 4,
          "id": "AnlsGrouping_02_Asex_04",
          "name": "Unknown",
          "label": "Unknown",
          "condition": {
            "dataset": "ADSL",
            "variable": "ASEX",
            "comparator": "EQ",
            "value": [
              "Unknown"
            ]
          }
        }
      ]
    },
    {
      "name": "Pooled Age Group 1 (N)",
      "id": "AnlsGrouping_03_Agegr1N",
      "label": "Age groups (years), n (%)",
      "dataDriven": false,
      "groupingDataset": "ADSL",
      "groupingVariable": "AGEGR1N",
      "groups": [
        {
          "level": 1,
          "order": 1,
          "id": "AnlsGrouping_03_Agegr1N_01",
          "name": "<65",
          "label": "<65",
          "condition": {
            "dataset": "ADSL",
            "variable": "AGEGR1",
            "comparator": "EQ",
            "value": [
              "<65"
            ]
          }
        },
        {
          "level": 1,
          "order": 2,
          "id": "AnlsGrouping_03_Agegr1N_02",
          "name": "65-80",
          "label": "65-80",
          "condition": {
            "dataset": "ADSL",
            "variable": "AGEGR1",
            "comparator": "EQ",
            "value": [
              "65-80"
            ]
          }
        },
        {
          "level": 1,
          "order": 3,
          "id": "AnlsGrouping_03_Agegr1N_03",
          "name": ">80",
          "label": ">80",
          "condition": {
            "dataset": "ADSL",
            "variable": "AGEGR1",
            "comparator": "EQ",
            "value": [
              ">80"
            ]
          }
        }
      ]
    },
    {
      "name": "Analysis Race",
      "id": "AnlsGrouping_04_Arace",
      "label": "Race, n (%)",
      "dataDriven": false,
      "groupingDataset": "ADSL",
      "groupingVariable": "ARACE",
      "groups": [
        {
          "level": 1,
          "order": 1,
          "id": "AnlsGrouping_04_Arace_01",
          "name": "American Indian or Alaska Native",
          "label": "American Indian or Alaska Native",
          "condition": {
            "dataset": "ADSL",
            "variable": "ARACE",
            "comparator": "EQ",
            "value": [
              "American Indian or Alaska Native"
            ]
          }
        },
        {
          "level": 1,
          "order": 2,
          "id": "AnlsGrouping_04_Arace_02",
          "name": "Asian",
          "label": "Asian",
          "condition": {
            "dataset": "ADSL",
            "variable": "ARACE",
            "comparator": "EQ",
            "value": [
              "Asian"
            ]
          }
        },
        {
          "level": 1,
          "order": 3,
          "id": "AnlsGrouping_04_Arace_03",
          "name": "Black or African American",
          "label": "Black or African American",
          "condition": {
            "dataset": "ADSL",
            "variable": "ARACE",
            "comparator": "EQ",
            "value": [
              "Black or African American"
            ]
          }
        },
        {
          "level": 1,
          "order": 4,
          "id": "AnlsGrouping_04_Arace_04",
          "name": "Native Hawaiian or Other Pacific Islander",
          "label": "Native Hawaiian or Other Pacific Islander",
          "condition": {
            "dataset": "ADSL",
            "variable": "ARACE",
            "comparator": "EQ",
            "value": [
              "Native Hawaiian or Other Pacific Islander"
            ]
          }
        },
        {
          "level": 1,
          "order": 5,
          "id": "AnlsGrouping_04_Arace_05",
          "name": "White",
          "label": "White",
          "condition": {
            "dataset": "ADSL",
            "variable": "ARACE",
            "comparator": "EQ",
            "value": [
              "White"
            ]
          }
        },
        {
          "level": 1,
          "order": 6,
          "id": "AnlsGrouping_04_Arace_06",
          "name": "Other",
          "label": "Other",
          "condition": {
            "dataset": "ADSL",
            "variable": "ARACE",
            "comparator": "EQ",
            "value": [
              "Other"
            ]
          }
        },
        {
          "level": 1,
          "order": 7,
          "id": "AnlsGrouping_04_Arace_07",
          "name": "Not Reported",
          "label": "Not Reported",
          "condition": {
            "dataset": "ADSL",
            "variable": "ARACE",
            "comparator": "EQ",
            "value": [
              "Not Reported"
            ]
          }
        },
        {
          "level": 1,
          "order": 8,
          "id": "AnlsGrouping_04_Arace_08",
          "name": "Unknown",
          "label": "Unknown",
          "condition": {
            "dataset": "ADSL",
            "variable": "ARACE",
            "comparator": "EQ",
            "value": [
              "Unknown"
            ]
          }
        }
      ]
    },
    {
      "name": "Analysis Ethnicity",
      "id": "AnlsGrouping_05_Aethnic",
      "label": "Ethnicity, n (%)",
      "dataDriven": false,
      "groupingDataset": "ADSL",
      "groupingVariable": "AETHNIC",
      "groups": [
        {
          "level": 1,
          "order": 1,
          "id": "AnlsGrouping_05_Aethnic_01",
          "name": "Hispanic or Latino",
          "label": "Hispanic or Latino",
          "condition": {
            "dataset": "ADSL",
            "variable": "AETHNIC",
            "comparator": "EQ",
            "value": [
              "Hispanic or Latino"
            ]
          }
        },
        {
          "level": 1,
          "order": 2,
          "id": "AnlsGrouping_05_Aethnic_02",
          "name": "Not Hispanic or Latino",
          "label": "Not Hispanic or Latino",
          "condition": {
            "dataset": "ADSL",
            "variable": "AETHNIC",
            "comparator": "EQ",
            "value": [
              "Not Hispanic or Latino"
            ]
          }
        },
        {
          "level": 1,
          "order": 3,
          "id": "AnlsGrouping_05_Aethnic_03",
          "name": "Not Reported",
          "label": "Not Reported",
          "condition": {
            "dataset": "ADSL",
            "variable": "AETHNIC",
            "comparator": "EQ",
            "value": [
              "Not Reported"
            ]
          }
        },
        {
          "level": 1,
          "order": 4,
          "id": "AnlsGrouping_05_Aethnic_04",
          "name": "Unknown",
          "label": "Unknown",
          "condition": {
            "dataset": "ADSL",
            "variable": "AETHNIC",
            "comparator": "EQ",
            "value": [
              "Unknown"
            ]
          }
        }
      ]
    },
    {
      "name": "Analysis Country of Participation",
      "id": "AnlsGrouping_06_Acountry",
      "label": "Country of participation, n (%)",
      "dataDriven": false,
      "groupingDataset": "ADSL",
      "groupingVariable": "ACOUNTRY",
      "groups": [
        {
          "level": 1,
          "order": 1,
          "id": "AnlsGrouping_06_Acountry_01",
          "name": "United States",
          "label": "United States",
          "condition": {
            "dataset": "ADSL",
            "variable": "ACOUNTRY",
            "comparator": "EQ",
            "value": [
              "United States"
            ]
          }
        }
      ]
    },
    {
      "name": "Treatment",
      "id": "AnlsGrouping_07_Trt01An",
      "dataDriven": false,
      "groupingDataset": "ADSL",
      "groupingVariable": "TRT01AN",
      "groups": [
        {
          "level": 1,
          "order": 1,
          "id": "AnlsGrouping_07_Trt01An_01",
          "name": "Xanomeline Low Dose \r\n(N=XX)\r\nn (%)",
          "condition": {
            "dataset": "ADSL",
            "variable": "TRT01AN",
            "comparator": "EQ",
            "value": [
              "1"
            ]
          }
        },
        {
          "level": 1,
          "order": 2,
          "id": "AnlsGrouping_07_Trt01An_02",
          "name": "Xanomeline High Dose \r\n(N=XX)\r\nn (%)",
          "condition": {
            "dataset": "ADSL",
            "variable": "TRT01AN",
            "comparator": "EQ",
            "value": [
              "2"
            ]
          }
        },
        {
          "level": 1,
          "order": 3,
          "id": "AnlsGrouping_07_Trt01An_03",
          "name": "Placebo \r\n(N=XX)\r\nn (%)",
          "condition": {
            "dataset": "ADSL",
            "variable": "TRT01AN",
            "comparator": "EQ",
            "value": [
              "3"
            ]
          }
        }
      ]
    },
    {
      "name": "Subject Died?",
      "id": "AnlsGrouping_08_Dthfl",
      "label": "Total Deaths",
      "dataDriven": false,
      "groupingDataset": "ADSL",
      "groupingVariable": "DTHFL",
      "groups": [
        {
          "level": 1,
          "order": 1,
          "id": "AnlsGrouping_08_Dthfl_01",
          "name": "Total Deaths",
          "label": "Total Deaths",
          "condition": {
            "dataset": "ADSL",
            "variable": "DTHFL",
            "comparator": "EQ",
            "value": [
              "Y"
            ]
          }
        }
      ]
    },
    {
      "name": "Cause of Death",
      "id": "AnlsGrouping_09_Dthcaus",
      "label": "Cause of death {alphabetical order}",
      "dataDriven": true,
      "groupingDataset": "ADSL",
      "groupingVariable": "DTHCAUS",
      "groups": [
        {
          "level": 1,
          "order": 1,
          "id": "AnlsGrouping_09_Dthcaus_01",
          "name": "Cause of death {alphabetical order}",
          "label": "Cause of death {alphabetical order}",
          "condition": {
            "dataset": "ADSL",
            "variable": "DTHFL",
            "comparator": "EQ",
            "value": [
              "Y"
            ]
          }
        }
      ]
    },
    {
      "name": "Cause of Death Group 1",
      "id": "AnlsGrouping_10_Dthcgr1",
      "label": "Treatment-emergent deaths [1]",
      "dataDriven": false,
      "groupingDataset": "ADSL",
      "groupingVariable": "DTHCGR1",
      "groups": [
        {
          "level": 1,
          "order": 1,
          "id": "AnlsGrouping_10_Dthcgr1_01",
          "name": "Treatment-emergent deaths [1]",
          "label": "Treatment-emergent deaths [1]",
          "compoundExpression": {
            "logicalOperator": "AND",
            "whereClauses": [
              {
                "level": 2,
                "order": 1,
                "condition": {
                  "dataset": "ADSL",
                  "variable": "DTHFL",
                  "comparator": "EQ",
                  "value": [
                    "Y"
                  ]
                }
              },
              {
                "level": 2,
                "order": 2,
                "condition": {
                  "dataset": "ADSL",
                  "variable": "DTHCGR1",
                  "comparator": "EQ",
                  "value": [
                    "Treatment-emergent"
                  ]
                }
              }
            ]
          }
        }
      ]
    },
    {
      "name": "Cause of Death",
      "id": "AnlsGrouping_11_Dthcaus",
      "label": "Cause of death {alphabetical order}",
      "dataDriven": true,
      "groupingDataset": "ADSL",
      "groupingVariable": "DTHCAUS",
      "groups": [
        {
          "level": 1,
          "order": 1,
          "id": "AnlsGrouping_11_Dthcaus_01",
          "name": "Cause of death {alphabetical order}",
          "label": "Cause of death {alphabetical order}",
          "compoundExpression": {
            "logicalOperator": "AND",
            "whereClauses": [
              {
                "level": 2,
                "order": 1,
                "condition": {
                  "dataset": "ADSL",
                  "variable": "DTHFL",
                  "comparator": "EQ",
                  "value": [
                    "Y"
                  ]
                }
              },
              {
                "level": 2,
                "order": 2,
                "condition": {
                  "dataset": "ADSL",
                  "variable": "DTHCGR1",
                  "comparator": "EQ",
                  "value": [
                    "Treatment-emergent"
                  ]
                }
              },
              {
                "level": 2,
                "order": 3,
                "condition": {
                  "dataset": "ADSL",
                  "variable": "DTHCAUS",
                  "comparator": "NE"
                }
              }
            ]
          }
        }
      ]
    },
    {
      "name": "Cause of Death Group 1",
      "id": "AnlsGrouping_12_Dthcgr1",
      "label": "Non treatment-emergent deaths [2]",
      "dataDriven": false,
      "groupingDataset": "ADSL",
      "groupingVariable": "DTHCGR1",
      "groups": [
        {
          "level": 1,
          "order": 1,
          "id": "AnlsGrouping_12_Dthcgr1_01",
          "name": "Non treatment-emergent deaths [2]",
          "label": "Non treatment-emergent deaths [2]",
          "compoundExpression": {
            "logicalOperator": "AND",
            "whereClauses": [
              {
                "level": 2,
                "order": 1,
                "condition": {
                  "dataset": "ADSL",
                  "variable": "DTHFL",
                  "comparator": "EQ",
                  "value": [
                    "Y"
                  ]
                }
              },
              {
                "level": 2,
                "order": 2,
                "condition": {
                  "dataset": "ADSL",
                  "variable": "DTHCGR1",
                  "comparator": "NE",
                  "value": [
                    "Treatment-emergent"
                  ]
                }
              }
            ]
          }
        }
      ]
    },
    {
      "name": "Cause of Death",
      "id": "AnlsGrouping_13_Dthcaus",
      "label": "Cause of death {alphabetical order}",
      "dataDriven": true,
      "groupingDataset": "ADSL",
      "groupingVariable": "DTHCAUS",
      "groups": [
        {
          "level": 1,
          "order": 1,
          "id": "AnlsGrouping_13_Dthcaus_01",
          "name": "Cause of death {alphabetical order}",
          "label": "Cause of death {alphabetical order}",
          "compoundExpression": {
            "logicalOperator": "AND",
            "whereClauses": [
              {
                "level": 2,
                "order": 1,
                "condition": {
                  "dataset": "ADSL",
                  "variable": "DTHFL",
                  "comparator": "EQ",
                  "value": [
                    "Y"
                  ]
                }
              },
              {
                "level": 2,
                "order": 2,
                "condition": {
                  "dataset": "ADSL",
                  "variable": "DTHCGR1",
                  "comparator": "NE",
                  "value": [
                    "Treatment-emergent"
                  ]
                }
              },
              {
                "level": 2,
                "order": 3,
                "condition": {
                  "dataset": "ADSL",
                  "variable": "DTHCAUS",
                  "comparator": "NE"
                }
              }
            ]
          }
        }
      ]
    },
    {
      "name": "Treatment",
      "id": "AnlsGrouping_14_Trt01An",
      "dataDriven": false,
      "groupingDataset": "ADSL",
      "groupingVariable": "TRT01AN",
      "groups": [
        {
          "level": 1,
          "order": 1,
          "id": "AnlsGrouping_14_Trt01An_01",
          "name": "Xanomeline Low Dose \r\n(N=XX)",
          "condition": {
            "dataset": "ADSL",
            "variable": "TRT01AN",
            "comparator": "EQ",
            "value": [
              "1"
            ]
          }
        },
        {
          "level": 1,
          "order": 2,
          "id": "AnlsGrouping_14_Trt01An_02",
          "name": "Xanomeline High Dose \r\n(N=XX)",
          "condition": {
            "dataset": "ADSL",
            "variable": "TRT01AN",
            "comparator": "EQ",
            "value": [
              "2"
            ]
          }
        },
        {
          "level": 1,
          "order": 3,
          "id": "AnlsGrouping_14_Trt01An_03",
          "name": "Placebo \r\n(N=XX)",
          "condition": {
            "dataset": "ADSL",
            "variable": "TRT01AN",
            "comparator": "EQ",
            "value": [
              "3"
            ]
          }
        }
      ]
    },
    {
      "name": "Parameter",
      "id": "AnlsGrouping_15_Param",
      "label": "Parameter (Unit)",
      "dataDriven": true,
      "groupingDataset": "ADLB",
      "groupingVariable": "PARAM",
      "groups": [
        {
          "level": 1,
          "order": 1,
          "id": "AnlsGrouping_15_Param_01",
          "name": "Parameter (Unit)",
          "label": "Parameter (Unit)",
          "compoundExpression": {
            "logicalOperator": "AND",
            "whereClauses": [
              {
                "level": 2,
                "order": 1,
                "condition": {
                  "dataset": "ADLB",
                  "variable": "PARCAT1",
                  "comparator": "EQ",
                  "value": [
                    "CHEM"
                  ]
                }
              },
              {
                "level": 2,
                "order": 2,
                "condition": {
                  "dataset": "ADLB",
                  "variable": "PARAM",
                  "comparator": "NE"
                }
              }
            ]
          }
        }
      ]
    },
    {
      "name": "Analysis Visit",
      "id": "AnlsGrouping_16_Avisit",
      "label": "Baseline",
      "dataDriven": false,
      "groupingDataset": "ADLB",
      "groupingVariable": "AVISIT",
      "groups": [
        {
          "level": 1,
          "order": 1,
          "id": "AnlsGrouping_16_Avisit_01",
          "name": "Baseline",
          "label": "Baseline",
          "compoundExpression": {
            "logicalOperator": "AND",
            "whereClauses": [
              {
                "level": 2,
                "order": 1,
                "condition": {
                  "dataset": "ADLB",
                  "variable": "PARCAT1",
                  "comparator": "EQ",
                  "value": [
                    "CHEM"
                  ]
                }
              },
              {
                "level": 2,
                "order": 2,
                "condition": {
                  "dataset": "ADLB",
                  "variable": "AVISIT",
                  "comparator": "EQ",
                  "value": [
                    "Baseline"
                  ]
                }
              }
            ]
          }
        }
      ]
    },
    {
      "name": "Analysis Visit",
      "id": "AnlsGrouping_17_Avisit",
      "label": "<Visit n>",
      "dataDriven": true,
      "groupingDataset": "ADLB",
      "groupingVariable": "AVISIT",
      "groups": [
        {
          "level": 1,
          "order": 1,
          "id": "AnlsGrouping_17_Avisit_01",
          "name": "<Visit n>",
          "label": "<Visit n>",
          "compoundExpression": {
            "logicalOperator": "AND",
            "whereClauses": [
              {
                "level": 2,
                "order": 1,
                "condition": {
                  "dataset": "ADLB",
                  "variable": "PARCAT1",
                  "comparator": "EQ",
                  "value": [
                    "CHEM"
                  ]
                }
              },
              {
                "level": 2,
                "order": 2,
                "condition": {
                  "dataset": "ADLB",
                  "variable": "AVISIT",
                  "comparator": "NE",
                  "value": [
                    "Baseline"
                  ]
                }
              }
            ]
          }
        }
      ]
    },
    {
      "name": "Analysis Visit",
      "id": "AnlsGrouping_18_Avisit",
      "label": "<Visit n Change from Baseline>",
      "dataDriven": true,
      "groupingDataset": "ADLB",
      "groupingVariable": "AVISIT",
      "groups": [
        {
          "level": 1,
          "order": 1,
          "id": "AnlsGrouping_18_Avisit_01",
          "name": "<Visit n Change from Baseline>",
          "label": "<Visit n Change from Baseline>",
          "compoundExpression": {
            "logicalOperator": "AND",
            "whereClauses": [
              {
                "level": 2,
                "order": 1,
                "condition": {
                  "dataset": "ADLB",
                  "variable": "PARCAT1",
                  "comparator": "EQ",
                  "value": [
                    "CHEM"
                  ]
                }
              },
              {
                "level": 2,
                "order": 2,
                "condition": {
                  "dataset": "ADLB",
                  "variable": "AVISIT",
                  "comparator": "NE",
                  "value": [
                    "Baseline"
                  ]
                }
              }
            ]
          }
        }
      ]
    },
    {
      "name": "Treatment",
      "id": "AnlsGrouping_19_Trt01An",
      "dataDriven": false,
      "groupingDataset": "ADSL",
      "groupingVariable": "TRT01AN",
      "groups": [
        {
          "level": 1,
          "order": 1,
          "id": "AnlsGrouping_19_Trt01An_01",
          "name": "Xanomeline Low Dose \r\n(N=XX)",
          "condition": {
            "dataset": "ADSL",
            "variable": "TRT01AN",
            "comparator": "EQ",
            "value": [
              "1"
            ]
          }
        },
        {
          "level": 1,
          "order": 2,
          "id": "AnlsGrouping_19_Trt01An_02",
          "name": "Xanomeline High Dose \r\n(N=XX)",
          "condition": {
            "dataset": "ADSL",
            "variable": "TRT01AN",
            "comparator": "EQ",
            "value": [
              "2"
            ]
          }
        },
        {
          "level": 1,
          "order": 3,
          "id": "AnlsGrouping_19_Trt01An_03",
          "name": "Placebo \r\n(N=XX)",
          "condition": {
            "dataset": "ADSL",
            "variable": "TRT01AN",
            "comparator": "EQ",
            "value": [
              "3"
            ]
          }
        }
      ]
    },
    {
      "name": "Parameter",
      "id": "AnlsGrouping_20_Param",
      "label": "Parameter (Units)",
      "dataDriven": true,
      "groupingDataset": "ADLB",
      "groupingVariable": "PARAM",
      "groups": [
        {
          "level": 1,
          "order": 1,
          "id": "AnlsGrouping_20_Param_01",
          "name": "Parameter (Units)",
          "label": "Parameter (Units)",
          "compoundExpression": {
            "logicalOperator": "AND",
            "whereClauses": [
              {
                "level": 2,
                "order": 1,
                "condition": {
                  "dataset": "ADLB",
                  "variable": "PARCAT1",
                  "comparator": "EQ",
                  "value": [
                    "HEM"
                  ]
                }
              },
              {
                "level": 2,
                "order": 2,
                "condition": {
                  "dataset": "ADLB",
                  "variable": "PARAM",
                  "comparator": "NE"
                }
              }
            ]
          }
        }
      ]
    },
    {
      "name": "Analysis Visit",
      "id": "AnlsGrouping_21_Avisit",
      "label": "Baseline",
      "dataDriven": false,
      "groupingDataset": "ADLB",
      "groupingVariable": "AVISIT",
      "groups": [
        {
          "level": 1,
          "order": 1,
          "id": "AnlsGrouping_21_Avisit_01",
          "name": "Baseline",
          "label": "Baseline",
          "compoundExpression": {
            "logicalOperator": "AND",
            "whereClauses": [
              {
                "level": 2,
                "order": 1,
                "condition": {
                  "dataset": "ADLB",
                  "variable": "PARCAT1",
                  "comparator": "EQ",
                  "value": [
                    "HEM"
                  ]
                }
              },
              {
                "level": 2,
                "order": 2,
                "condition": {
                  "dataset": "ADLB",
                  "variable": "AVISIT",
                  "comparator": "EQ",
                  "value": [
                    "Baseline"
                  ]
                }
              }
            ]
          }
        }
      ]
    },
    {
      "name": "Analysis Visit",
      "id": "AnlsGrouping_22_Avisit",
      "label": "<Visit n>",
      "dataDriven": true,
      "groupingDataset": "ADLB",
      "groupingVariable": "AVISIT",
      "groups": [
        {
          "level": 1,
          "order": 1,
          "id": "AnlsGrouping_22_Avisit_01",
          "name": "<Visit n>",
          "label": "<Visit n>",
          "compoundExpression": {
            "logicalOperator": "AND",
            "whereClauses": [
              {
                "level": 2,
                "order": 1,
                "condition": {
                  "dataset": "ADLB",
                  "variable": "PARCAT1",
                  "comparator": "EQ",
                  "value": [
                    "HEM"
                  ]
                }
              },
              {
                "level": 2,
                "order": 2,
                "condition": {
                  "dataset": "ADLB",
                  "variable": "AVISIT",
                  "comparator": "NE",
                  "value": [
                    "Baseline"
                  ]
                }
              }
            ]
          }
        }
      ]
    },
    {
      "name": "Analysis Visit",
      "id": "AnlsGrouping_23_Avisit",
      "label": "<Visit n Change from Baseline>",
      "dataDriven": true,
      "groupingDataset": "ADLB",
      "groupingVariable": "AVISIT",
      "groups": [
        {
          "level": 1,
          "order": 1,
          "id": "AnlsGrouping_23_Avisit_01",
          "name": "<Visit n Change from Baseline>",
          "label": "<Visit n Change from Baseline>",
          "compoundExpression": {
            "logicalOperator": "AND",
            "whereClauses": [
              {
                "level": 2,
                "order": 1,
                "condition": {
                  "dataset": "ADLB",
                  "variable": "PARCAT1",
                  "comparator": "EQ",
                  "value": [
                    "HEM"
                  ]
                }
              },
              {
                "level": 2,
                "order": 2,
                "condition": {
                  "dataset": "ADLB",
                  "variable": "AVISIT",
                  "comparator": "NE",
                  "value": [
                    "Baseline"
                  ]
                }
              }
            ]
          }
        }
      ]
    },
    {
      "name": "Treatment",
      "id": "AnlsGrouping_24_Trt01An",
      "dataDriven": false,
      "groupingDataset": "ADSL",
      "groupingVariable": "TRT01AN",
      "groups": [
        {
          "level": 1,
          "order": 1,
          "id": "AnlsGrouping_24_Trt01An_01",
          "name": "Xanomeline Low Dose \r\n(N=XX)",
          "condition": {
            "dataset": "ADSL",
            "variable": "TRT01AN",
            "comparator": "EQ",
            "value": [
              "1"
            ]
          }
        },
        {
          "level": 1,
          "order": 2,
          "id": "AnlsGrouping_24_Trt01An_02",
          "name": "Xanomeline High Dose \r\n(N=XX)",
          "condition": {
            "dataset": "ADSL",
            "variable": "TRT01AN",
            "comparator": "EQ",
            "value": [
              "2"
            ]
          }
        },
        {
          "level": 1,
          "order": 3,
          "id": "AnlsGrouping_24_Trt01An_03",
          "name": "Placebo \r\n(N=XX)",
          "condition": {
            "dataset": "ADSL",
            "variable": "TRT01AN",
            "comparator": "EQ",
            "value": [
              "3"
            ]
          }
        }
      ]
    },
    {
      "name": "Parameter",
      "id": "AnlsGrouping_25_Param",
      "label": "Parameter (Unit)",
      "dataDriven": false,
      "groupingDataset": "ADVS",
      "groupingVariable": "PARAM",
      "groups": [
        {
          "level": 1,
          "order": 1,
          "id": "AnlsGrouping_25_Param_01",
          "name": "Parameter (Unit)",
          "label": "Parameter (Unit)",
          "condition": {
            "dataset": "ADVS",
            "variable": "PARAM",
            "comparator": "NE"
          }
        }
      ]
    },
    {
      "name": "Analysis Visit",
      "id": "AnlsGrouping_26_Avisit",
      "label": "Baseline",
      "dataDriven": false,
      "groupingDataset": "ADVS",
      "groupingVariable": "AVISIT",
      "groups": [
        {
          "level": 1,
          "order": 1,
          "id": "AnlsGrouping_26_Avisit_01",
          "name": "Baseline",
          "label": "Baseline",
          "condition": {
            "dataset": "ADVS",
            "variable": "AVISIT",
            "comparator": "EQ",
            "value": [
              "Baseline"
            ]
          }
        }
      ]
    },
    {
      "name": "Analysis Visit",
      "id": "AnlsGrouping_27_Avisit",
      "label": "<Visit n>",
      "dataDriven": true,
      "groupingDataset": "ADVS",
      "groupingVariable": "AVISIT",
      "groups": [
        {
          "level": 1,
          "order": 1,
          "id": "AnlsGrouping_27_Avisit_01",
          "name": "<Visit n>",
          "label": "<Visit n>",
          "condition": {
            "dataset": "ADVS",
            "variable": "AVISIT",
            "comparator": "NE",
            "value": [
              "Baseline"
            ]
          }
        }
      ]
    },
    {
      "name": "Analysis Visit",
      "id": "AnlsGrouping_28_Avisit",
      "label": "<Visit n Change from Baseline>",
      "dataDriven": true,
      "groupingDataset": "ADVS",
      "groupingVariable": "AVISIT",
      "groups": [
        {
          "level": 1,
          "order": 1,
          "id": "AnlsGrouping_28_Avisit_01",
          "name": "<Visit n Change from Baseline>",
          "label": "<Visit n Change from Baseline>",
          "condition": {
            "dataset": "ADVS",
            "variable": "AVISIT",
            "comparator": "NE",
            "value": [
              "Baseline"
            ]
          }
        }
      ]
    }
  ],
  "dataSubsets": [
    {
      "level": 1,
      "order": 1,
      "id": "Dss_01",
      "name": "Total Population\r\n(N=XX)\r\nn (%)",
      "label": "Total Population\r\n(N=XX)\r\nn (%)",
      "condition": {
        "dataset": "ADSL",
        "variable": "TRT01AN",
        "comparator": "NE"
      }
    },
    {
      "level": 1,
      "order": 1,
      "id": "Dss_02",
      "name": "Duration of Disease (Months)",
      "label": "Duration of Disease (Months)",
      "condition": {
        "dataset": "ADSL",
        "variable": "DURDIS",
        "comparator": "NE"
      }
    },
    {
      "level": 1,
      "order": 1,
      "id": "Dss_03",
      "name": "Total Deaths",
      "label": "Total Deaths",
      "condition": {
        "dataset": "ADSL",
        "variable": "DTHFL",
        "comparator": "EQ",
        "value": [
          "Y"
        ]
      }
    },
    {
      "level": 1,
      "order": 1,
      "id": "Dss_04",
      "name": "Cause of death {alphabetical order}",
      "label": "Cause of death {alphabetical order}",
      "condition": {
        "dataset": "ADSL",
        "variable": "DTHFL",
        "comparator": "EQ",
        "value": [
          "Y"
        ]
      }
    },
    {
      "level": 1,
      "order": 1,
      "id": "Dss_05",
      "name": "Treatment-emergent deaths [1]",
      "label": "Treatment-emergent deaths [1]",
      "compoundExpression": {
        "logicalOperator": "AND",
        "whereClauses": [
          {
            "level": 2,
            "order": 1,
            "condition": {
              "dataset": "ADSL",
              "variable": "DTHFL",
              "comparator": "EQ",
              "value": [
                "Y"
              ]
            }
          },
          {
            "level": 2,
            "order": 2,
            "condition": {
              "dataset": "ADSL",
              "variable": "DTHCGR1",
              "comparator": "EQ",
              "value": [
                "Treatment-emergent"
              ]
            }
          }
        ]
      }
    },
    {
      "level": 1,
      "order": 1,
      "id": "Dss_06",
      "name": "Cause of death {alphabetical order}",
      "label": "Cause of death {alphabetical order}",
      "compoundExpression": {
        "logicalOperator": "AND",
        "whereClauses": [
          {
            "level": 2,
            "order": 1,
            "condition": {
              "dataset": "ADSL",
              "variable": "DTHFL",
              "comparator": "EQ",
              "value": [
                "Y"
              ]
            }
          },
          {
            "level": 2,
            "order": 2,
            "condition": {
              "dataset": "ADSL",
              "variable": "DTHCGR1",
              "comparator": "EQ",
              "value": [
                "Treatment-emergent"
              ]
            }
          },
          {
            "level": 2,
            "order": 3,
            "condition": {
              "dataset": "ADSL",
              "variable": "DTHCAUS",
              "comparator": "NE"
            }
          }
        ]
      }
    },
    {
      "level": 1,
      "order": 1,
      "id": "Dss_07",
      "name": "Non treatment-emergent deaths [2]",
      "label": "Non treatment-emergent deaths [2]",
      "compoundExpression": {
        "logicalOperator": "AND",
        "whereClauses": [
          {
            "level": 2,
            "order": 1,
            "condition": {
              "dataset": "ADSL",
              "variable": "DTHFL",
              "comparator": "EQ",
              "value": [
                "Y"
              ]
            }
          },
          {
            "level": 2,
            "order": 2,
            "condition": {
              "dataset": "ADSL",
              "variable": "DTHCGR1",
              "comparator": "NE",
              "value": [
                "Treatment-emergent"
              ]
            }
          }
        ]
      }
    },
    {
      "level": 1,
      "order": 1,
      "id": "Dss_08",
      "name": "Cause of death {alphabetical order}",
      "label": "Cause of death {alphabetical order}",
      "compoundExpression": {
        "logicalOperator": "AND",
        "whereClauses": [
          {
            "level": 2,
            "order": 1,
            "condition": {
              "dataset": "ADSL",
              "variable": "DTHFL",
              "comparator": "EQ",
              "value": [
                "Y"
              ]
            }
          },
          {
            "level": 2,
            "order": 2,
            "condition": {
              "dataset": "ADSL",
              "variable": "DTHCGR1",
              "comparator": "NE",
              "value": [
                "Treatment-emergent"
              ]
            }
          },
          {
            "level": 2,
            "order": 3,
            "condition": {
              "dataset": "ADSL",
              "variable": "DTHCAUS",
              "comparator": "NE"
            }
          }
        ]
      }
    },
    {
      "level": 1,
      "order": 1,
      "id": "Dss_09",
      "name": "Parameter (Unit)",
      "label": "Parameter (Unit)",
      "compoundExpression": {
        "logicalOperator": "AND",
        "whereClauses": [
          {
            "level": 2,
            "order": 1,
            "condition": {
              "dataset": "ADLB",
              "variable": "PARCAT1",
              "comparator": "EQ",
              "value": [
                "CHEM"
              ]
            }
          },
          {
            "level": 2,
            "order": 2,
            "condition": {
              "dataset": "ADLB",
              "variable": "PARAM",
              "comparator": "NE"
            }
          }
        ]
      }
    },
    {
      "level": 1,
      "order": 1,
      "id": "Dss_10",
      "name": "Baseline",
      "label": "Baseline",
      "compoundExpression": {
        "logicalOperator": "AND",
        "whereClauses": [
          {
            "level": 2,
            "order": 1,
            "condition": {
              "dataset": "ADLB",
              "variable": "PARCAT1",
              "comparator": "EQ",
              "value": [
                "CHEM"
              ]
            }
          },
          {
            "level": 2,
            "order": 2,
            "condition": {
              "dataset": "ADLB",
              "variable": "AVISIT",
              "comparator": "EQ",
              "value": [
                "Baseline"
              ]
            }
          }
        ]
      }
    },
    {
      "level": 1,
      "order": 1,
      "id": "Dss_11",
      "name": "Baseline Value",
      "label": "Baseline Value",
      "condition": {
        "dataset": "ADLB",
        "variable": "PARCAT1",
        "comparator": "EQ",
        "value": [
          "CHEM"
        ]
      }
    },
    {
      "level": 1,
      "order": 1,
      "id": "Dss_12",
      "name": "<Visit n>",
      "label": "<Visit n>",
      "compoundExpression": {
        "logicalOperator": "AND",
        "whereClauses": [
          {
            "level": 2,
            "order": 1,
            "condition": {
              "dataset": "ADLB",
              "variable": "PARCAT1",
              "comparator": "EQ",
              "value": [
                "CHEM"
              ]
            }
          },
          {
            "level": 2,
            "order": 2,
            "condition": {
              "dataset": "ADLB",
              "variable": "AVISIT",
              "comparator": "NE",
              "value": [
                "Baseline"
              ]
            }
          }
        ]
      }
    },
    {
      "level": 1,
      "order": 1,
      "id": "Dss_13",
      "name": "Analysis Value",
      "label": "Analysis Value",
      "condition": {
        "dataset": "ADLB",
        "variable": "PARCAT1",
        "comparator": "EQ",
        "value": [
          "CHEM"
        ]
      }
    },
    {
      "level": 1,
      "order": 1,
      "id": "Dss_14",
      "name": "<Visit n Change from Baseline>",
      "label": "<Visit n Change from Baseline>",
      "compoundExpression": {
        "logicalOperator": "AND",
        "whereClauses": [
          {
            "level": 2,
            "order": 1,
            "condition": {
              "dataset": "ADLB",
              "variable": "PARCAT1",
              "comparator": "EQ",
              "value": [
                "CHEM"
              ]
            }
          },
          {
            "level": 2,
            "order": 2,
            "condition": {
              "dataset": "ADLB",
              "variable": "AVISIT",
              "comparator": "NE",
              "value": [
                "Baseline"
              ]
            }
          }
        ]
      }
    },
    {
      "level": 1,
      "order": 1,
      "id": "Dss_15",
      "name": "Change from Baseline",
      "label": "Change from Baseline",
      "condition": {
        "dataset": "ADLB",
        "variable": "PARCAT1",
        "comparator": "EQ",
        "value": [
          "CHEM"
        ]
      }
    },
    {
      "level": 1,
      "order": 1,
      "id": "Dss_16",
      "name": "Parameter (Units)",
      "label": "Parameter (Units)",
      "compoundExpression": {
        "logicalOperator": "AND",
        "whereClauses": [
          {
            "level": 2,
            "order": 1,
            "condition": {
              "dataset": "ADLB",
              "variable": "PARCAT1",
              "comparator": "EQ",
              "value": [
                "HEM"
              ]
            }
          },
          {
            "level": 2,
            "order": 2,
            "condition": {
              "dataset": "ADLB",
              "variable": "PARAM",
              "comparator": "NE"
            }
          }
        ]
      }
    },
    {
      "level": 1,
      "order": 1,
      "id": "Dss_17",
      "name": "Baseline",
      "label": "Baseline",
      "compoundExpression": {
        "logicalOperator": "AND",
        "whereClauses": [
          {
            "level": 2,
            "order": 1,
            "condition": {
              "dataset": "ADLB",
              "variable": "PARCAT1",
              "comparator": "EQ",
              "value": [
                "HEM"
              ]
            }
          },
          {
            "level": 2,
            "order": 2,
            "condition": {
              "dataset": "ADLB",
              "variable": "AVISIT",
              "comparator": "EQ",
              "value": [
                "Baseline"
              ]
            }
          }
        ]
      }
    },
    {
      "level": 1,
      "order": 1,
      "id": "Dss_18",
      "name": "Baseline Value",
      "label": "Baseline Value",
      "condition": {
        "dataset": "ADLB",
        "variable": "PARCAT1",
        "comparator": "EQ",
        "value": [
          "HEM"
        ]
      }
    },
    {
      "level": 1,
      "order": 1,
      "id": "Dss_19",
      "name": "<Visit n>",
      "label": "<Visit n>",
      "compoundExpression": {
        "logicalOperator": "AND",
        "whereClauses": [
          {
            "level": 2,
            "order": 1,
            "condition": {
              "dataset": "ADLB",
              "variable": "PARCAT1",
              "comparator": "EQ",
              "value": [
                "HEM"
              ]
            }
          },
          {
            "level": 2,
            "order": 2,
            "condition": {
              "dataset": "ADLB",
              "variable": "AVISIT",
              "comparator": "NE",
              "value": [
                "Baseline"
              ]
            }
          }
        ]
      }
    },
    {
      "level": 1,
      "order": 1,
      "id": "Dss_20",
      "name": "Analysis Value",
      "label": "Analysis Value",
      "condition": {
        "dataset": "ADLB",
        "variable": "PARCAT1",
        "comparator": "EQ",
        "value": [
          "HEM"
        ]
      }
    },
    {
      "level": 1,
      "order": 1,
      "id": "Dss_21",
      "name": "<Visit n Change from Baseline>",
      "label": "<Visit n Change from Baseline>",
      "compoundExpression": {
        "logicalOperator": "AND",
        "whereClauses": [
          {
            "level": 2,
            "order": 1,
            "condition": {
              "dataset": "ADLB",
              "variable": "PARCAT1",
              "comparator": "EQ",
              "value": [
                "HEM"
              ]
            }
          },
          {
            "level": 2,
            "order": 2,
            "condition": {
              "dataset": "ADLB",
              "variable": "AVISIT",
              "comparator": "NE",
              "value": [
                "Baseline"
              ]
            }
          }
        ]
      }
    },
    {
      "level": 1,
      "order": 1,
      "id": "Dss_22",
      "name": "Change from Baseline",
      "label": "Change from Baseline",
      "condition": {
        "dataset": "ADLB",
        "variable": "PARCAT1",
        "comparator": "EQ",
        "value": [
          "HEM"
        ]
      }
    },
    {
      "level": 1,
      "order": 1,
      "id": "Dss_23",
      "name": "Parameter (Unit)",
      "label": "Parameter (Unit)",
      "condition": {
        "dataset": "ADVS",
        "variable": "PARAM",
        "comparator": "NE"
      }
    },
    {
      "level": 1,
      "order": 1,
      "id": "Dss_24",
      "name": "Baseline",
      "label": "Baseline",
      "condition": {
        "dataset": "ADVS",
        "variable": "AVISIT",
        "comparator": "EQ",
        "value": [
          "Baseline"
        ]
      }
    },
    {
      "level": 1,
      "order": 1,
      "id": "Dss_25",
      "name": "<Visit n>",
      "label": "<Visit n>",
      "condition": {
        "dataset": "ADVS",
        "variable": "AVISIT",
        "comparator": "NE",
        "value": [
          "Baseline"
        ]
      }
    },
    {
      "level": 1,
      "order": 1,
      "id": "Dss_26",
      "name": "<Visit n Change from Baseline>",
      "label": "<Visit n Change from Baseline>",
      "condition": {
        "dataset": "ADVS",
        "variable": "AVISIT",
        "comparator": "NE",
        "value": [
          "Baseline"
        ]
      }
    }
  ],
  "methods": [
    {
      "name": "Count by group for a categorical variable",
      "description": "Count across groups for a categorical variable, based on subject occurrence",
      "label": "Grouped count for categorical variable",
      "id": "Mth_01",
      "operations": [
        {
          "name": "Count of subjects",
          "label": "n",
          "id": "Mth_01_01_n",
          "order": 1,
          "resultPattern": "(N=)"
        }
      ],
      "codeTemplate": {
        "context": "R (siera)",
        "code": "in_data = df2_analysisidhere |>\r\n    dplyr::select(distinctlisthere) |>\r\n    unique() |>\r\n    dplyr::mutate(dummy = 'dummyvar')\r\n\r\ndf3_analysisidhere <-\r\n  cards::ard_categorical(\r\n    data = in_data\r\n    byhere\r\n   ,  variables = dummy\r\n  ) |>\r\ndplyr::filter(stat_name == 'n') |>\r\n dplyr::mutate(operationid = 'opid1here')",
        "parameters": [
          {
            "name": "distinctlisthere",
            "valueSource": "distinct_list"
          },
          {
            "name": "byhere",
            "valueSource": "by_stmt"
          }
        ]
      }
    },
    {
      "name": "Summary by group of a categorical variable",
      "description": "Descriptive summary statistics across groups for a categorical variable, based on subject occurrence",
      "label": "Grouped summary of categorical variable",
      "id": "Mth_02",
      "operations": [
        {
          "name": "n",
          "label": "n",
          "id": "Mth_02_01_n",
          "order": 1,
          "resultPattern": "XX"
        },
        {
          "name": "%",
          "label": "%",
          "id": "Mth_02_02_%",
          "order": 2,
          "resultPattern": "(XX.X)",
          "referencedOperationRelationships": [
            {
              "id": "Mth_02_02_%_NUM",
              "referencedOperationRole": {
                "controlledTerm": "NUMERATOR"
              },
              "operationId": "Mth_02_01_n",
              "description": "The count operation whose result provides the numerator for calculation of the percentage. The referenced analysis should be the analysis that contains this percent operation."
            },
            {
              "id": "Mth_02_02_%_DEN",
              "referencedOperationRole": {
                "controlledTerm": "DENOMINATOR"
              },
              "operationId": "Mth_01_01_n",
              "description": "The count operation whose result provides the denominator for calculation of the percentage. The referenced analysis should have the same analysis set and subject grouping(s) as the analysis containing this percent operation."
            }
          ]
        },
        {
          "name": "Risk Difference %",
          "label": "Risk Difference %",
          "id": "Mth_02_03_Risk_Difference_%",
          "order": 3,
          "resultPattern": "XX.X"
        },
        {
          "name": "95% CI Low",
          "label": "95% CI Low",
          "id": "Mth_02_04_95%_CI_Low",
          "order": 4,
          "resultPattern": "XX.X"
        },
        {
          "name": "95% CI High",
          "label": "95% CI High",
          "id": "Mth_02_05_95%_CI_High",
          "order": 5,
          "resultPattern": "XX.X"
        }
      ],
      "codeTemplate": {
        "context": "R (siera)",
        "code": "denom_dataset = df2_denomanaidhere               \r\n\r\n     in_data = df2_analysisidhere |>\r\n                        dplyr::distinct(distinctlisthere) \r\n                    dataDriven = isdatadrivenhere\r\n                    if(dataDriven == TRUE){\r\n                    df3_analysisidhere <-\r\n                     cards::ard_categorical(\r\n                        data = in_data\r\n                        stratastmthere,\r\n                        denominator = denom_dataset\r\n                    ) } else {\r\n                    df3_analysisidhere <-\r\n                    cards::ard_categorical(\r\n                        data = in_data\r\n                        bystmthere,\r\n                        denominator = denom_dataset\r\n                    ) }\r\n                    df3_analysisidhere <- df3_analysisidhere|>\r\n                    dplyr::filter(stat_name %in% c('n', 'p')) |>\r\n                    dplyr::mutate(operationid = dplyr::case_when(stat_name == 'n' ~ 'Mth_02_01_n',\r\n                                                              stat_name == 'p' ~ 'Mth_02_02_%'))",
        "parameters": [
          {
            "name": "distinctlisthere",
            "description": "list of variables by which to apply the \"distinct\" function from dplyr",
            "valueSource": "distinct_list"
          },
          {
            "name": "denomanaidhere",
            "description": "Analysis ID for Denominator Analysis",
            "valueSource": "DEN_analysisid"
          },
          {
            "name": "isdatadrivenhere",
            "description": "dataDriven boolean value for highest Analysisgrouping factor",
            "valueSource": "AG_max_dataDriven"
          },
          {
            "name": "bystmthere",
            "description": "Combined statement for \"variables\" and \"by\" statement in ard_categorical",
            "valueSource": "by_vars"
          },
          {
            "name": "stratastmthere",
            "description": "Combined statement for \"variables\" and \"strata\" statement in ard_categorical",
            "valueSource": "strata_vars"
          }
        ]
      }
    },
    {
      "name": "Summary by group of a categorical variable",
      "description": "Descriptive summary statistics across groups for a categorical variable, based on subject occurrence",
      "label": "Grouped summary of categorical variable",
      "id": "Mth_03",
      "operations": [
        {
          "name": "n",
          "label": "n",
          "id": "Mth_03_01_n",
          "order": 1,
          "resultPattern": "XX"
        },
        {
          "name": "%",
          "label": "%",
          "id": "Mth_03_02_%",
          "order": 2,
          "resultPattern": "(XX.XX)",
          "referencedOperationRelationships": [
            {
              "id": "Mth_03_02_%_NUM",
              "referencedOperationRole": {
                "controlledTerm": "NUMERATOR"
              },
              "operationId": "Mth_03_01_n",
              "description": "The count operation whose result provides the numerator for calculation of the percentage. The referenced analysis should be the analysis that contains this percent operation."
            },
            {
              "id": "Mth_03_02_%_DEN",
              "referencedOperationRole": {
                "controlledTerm": "DENOMINATOR"
              },
              "operationId": "Mth_01_01_n",
              "description": "The count operation whose result provides the denominator for calculation of the percentage. The referenced analysis should have the same analysis set and subject grouping(s) as the analysis containing this percent operation."
            }
          ]
        }
      ]
    },
    {
      "name": "Summary by group of a categorical variable",
      "description": "Descriptive summary statistics across groups for a categorical variable, based on subject occurrence",
      "label": "Grouped summary of categorical variable",
      "id": "Mth_04",
      "operations": [
        {
          "name": "n",
          "label": "n",
          "id": "Mth_04_01_n",
          "order": 1,
          "resultPattern": "XX"
        },
        {
          "name": "%",
          "label": "%",
          "id": "Mth_04_02_%",
          "order": 2,
          "resultPattern": "(XX.XX)",
          "referencedOperationRelationships": [
            {
              "id": "Mth_04_02_%_NUM",
              "referencedOperationRole": {
                "controlledTerm": "NUMERATOR"
              },
              "operationId": "Mth_04_01_n",
              "description": "The count operation whose result provides the numerator for calculation of the percentage. The referenced analysis should be the analysis that contains this percent operation."
            },
            {
              "id": "Mth_04_02_%_DEN",
              "referencedOperationRole": {
                "controlledTerm": "DENOMINATOR"
              },
              "operationId": "Mth_01_01_n",
              "description": "The count operation whose result provides the denominator for calculation of the percentage. The referenced analysis should have the same analysis set and subject grouping(s) as the analysis containing this percent operation."
            }
          ]
        }
      ]
    },
    {
      "name": "Summary by group of a continuous variable",
      "description": "Descriptive summary statistics across groups for a continuous variable",
      "label": "Grouped summary of continuous variable",
      "id": "Mth_05",
      "operations": [
        {
          "name": "n",
          "label": "n",
          "id": "Mth_05_01_n",
          "order": 1,
          "resultPattern": "XX"
        },
        {
          "name": "Mean",
          "label": "Mean",
          "id": "Mth_05_02_Mean",
          "order": 2,
          "resultPattern": "XX.X"
        },
        {
          "name": "SD",
          "label": "SD",
          "id": "Mth_05_03_SD",
          "order": 3,
          "resultPattern": "(XX.XX)"
        },
        {
          "name": "Median",
          "label": "Median",
          "id": "Mth_05_04_Median",
          "order": 4,
          "resultPattern": "XX.X"
        },
        {
          "name": "Q1",
          "label": "Q1",
          "id": "Mth_05_05_Q1",
          "order": 5,
          "resultPattern": "XX.X"
        },
        {
          "name": "Q3",
          "label": "Q3",
          "id": "Mth_05_06_Q3",
          "order": 6,
          "resultPattern": "XX.X"
        },
        {
          "name": "Min",
          "label": "Min",
          "id": "Mth_05_07_Min",
          "order": 7,
          "resultPattern": "XX.X"
        },
        {
          "name": "Max",
          "label": "Max",
          "id": "Mth_05_08_Max",
          "order": 8,
          "resultPattern": "XX.X"
        }
      ],
      "codeTemplate": {
        "context": "R (siera)",
        "code": "df3_analysisidhere <-\r\n                    cards::ard_continuous(\r\n                        data = df2_analysisidhere,\r\n                        by = c(byvarshere),\r\n                        variables = anavarhere\r\n                    ) |>\r\n                    dplyr::mutate(operationid = dplyr::case_when(stat_name == 'N' ~ 'Mth_03_01_n',\r\n                                                stat_name == 'mean' ~ 'Mth_03_02_Mean',\r\n                                                stat_name == 'sd' ~ 'Mth_03_03_SD',\r\n                                                stat_name == 'median' ~ 'Mth_03_04_Median',\r\n                                                stat_name == 'p25' ~ 'Mth_03_05_Q1',\r\n                                                stat_name == 'p75' ~ 'Mth_03_06_Q3',\r\n                                                stat_name == 'min' ~ 'Mth_03_07_Min',\r\n                                                stat_name == 'max' ~ 'Mth_03_08_Max'))",
        "parameters": [
          {
            "name": "byvarshere",
            "description": "string for \"by\" parameter for the ard_continuous function",
            "valueSource": "by_listc"
          },
          {
            "name": "anavarhere",
            "description": "Analysis variable to be summarised",
            "valueSource": "ana_var"
          }
        ]
      }
    },
    {
      "name": "Summary by group of a continuous variable",
      "description": "Descriptive summary statistics across groups for a continuous variable",
      "label": "Grouped summary of continuous variable",
      "id": "Mth_06",
      "operations": [
        {
          "name": "Mean",
          "label": "Mean",
          "id": "Mth_06_01_Mean",
          "order": 1,
          "resultPattern": "XX.X"
        },
        {
          "name": "SD",
          "label": "SD",
          "id": "Mth_06_02_SD",
          "order": 2,
          "resultPattern": "(XX.XX)"
        },
        {
          "name": "Median",
          "label": "Median",
          "id": "Mth_06_03_Median",
          "order": 3,
          "resultPattern": "XX.X"
        },
        {
          "name": "Min",
          "label": "Min",
          "id": "Mth_06_04_Min",
          "order": 4,
          "resultPattern": "XX.X"
        },
        {
          "name": "Max",
          "label": "Max",
          "id": "Mth_06_05_Max",
          "order": 5,
          "resultPattern": "XX.X"
        },
        {
          "name": "Q1",
          "label": "Q1",
          "id": "Mth_06_06_Q1",
          "order": 6,
          "resultPattern": "XX.X"
        },
        {
          "name": "Q3",
          "label": "Q3",
          "id": "Mth_06_07_Q3",
          "order": 7,
          "resultPattern": "XX.X"
        }
      ]
    },
    {
      "name": "Summary by group of a continuous variable",
      "description": "Descriptive summary statistics across groups for a continuous variable",
      "label": "Grouped summary of continuous variable",
      "id": "Mth_07",
      "operations": [
        {
          "name": "n",
          "label": "n",
          "id": "Mth_07_01_n",
          "order": 1,
          "resultPattern": "XX"
        },
        {
          "name": "Mean",
          "label": "Mean",
          "id": "Mth_07_02_Mean",
          "order": 2,
          "resultPattern": "XX.X"
        },
        {
          "name": "SD",
          "label": "SD",
          "id": "Mth_07_03_SD",
          "order": 3,
          "resultPattern": "(XX.XX)"
        },
        {
          "name": "Median",
          "label": "Median",
          "id": "Mth_07_04_Median",
          "order": 4,
          "resultPattern": "XX.X"
        },
        {
          "name": "Q1",
          "label": "Q1",
          "id": "Mth_07_05_Q1",
          "order": 5,
          "resultPattern": "XX.X"
        },
        {
          "name": "Q3",
          "label": "Q3",
          "id": "Mth_07_06_Q3",
          "order": 6,
          "resultPattern": "XX.X"
        },
        {
          "name": "Min",
          "label": "Min",
          "id": "Mth_07_07_Min",
          "order": 7,
          "resultPattern": "XX.X"
        },
        {
          "name": "Max",
          "label": "Max",
          "id": "Mth_07_08_Max",
          "order": 8,
          "resultPattern": "XX.X"
        }
      ]
    }
  ],
  "analyses": [
    {
      "name": "Summary of Subjects by Treatment",
      "id": "An_01",
      "methodId": "Mth_01",
      "version": 1,
      "categoryIds": [
        "ANSET_01",
        "ANSET_01_ANINT_02"
      ],
      "dataset": "ADSL",
      "variable": "USUBJID",
      "analysisSetId": "AnalysisSet_01",
      "orderedGroupings": [
        {
          "order": 1,
          "resultsByGroup": true,
          "groupingId": "AnlsGrouping_01_Trt01An"
        }
      ]
    },
    {
      "name": "Count of Subjects by Treatment",
      "id": "An_02",
      "methodId": "Mth_01",
      "version": 1,
      "categoryIds": [
        "ANSET_01",
        "ANSET_01_ANINT_02"
      ],
      "dataset": "ADSL",
      "variable": "USUBJID",
      "analysisSetId": "AnalysisSet_01",
      "dataSubsetId": "Dss_01"
    },
    {
      "name": "Summary of Subjects by Treatment and Sex, n (%)",
      "id": "An_03",
      "reason": {
        "controlledTerm": "SPECIFIED IN SAP"
      },
      "purpose": {
        "sponsorTermId": "TermEx01_01"
      },
      "methodId": "Mth_02",
      "version": 1,
      "categoryIds": [
        "ANSET_01",
        "ANSET_01_ANINT_02"
      ],
      "dataset": "ADSL",
      "variable": "USUBJID",
      "analysisSetId": "AnalysisSet_01",
      "orderedGroupings": [
        {
          "order": 1,
          "resultsByGroup": true,
          "groupingId": "AnlsGrouping_01_Trt01An"
        },
        {
          "order": 2,
          "resultsByGroup": true,
          "groupingId": "AnlsGrouping_02_Asex"
        }
      ],
      "referencedAnalysisOperations": [
        {
          "referencedOperationRelationshipId": "Mth_02_02_%_NUM",
          "analysisId": "An_03"
        },
        {
          "referencedOperationRelationshipId": "Mth_02_02_%_DEN",
          "analysisId": "An_01"
        }
      ]
    },
    {
      "name": "Count of Sex, n (%) by Treatment",
      "id": "An_04",
      "reason": {
        "controlledTerm": "SPECIFIED IN SAP"
      },
      "purpose": {
        "sponsorTermId": "TermEx01_01"
      },
      "methodId": "Mth_02",
      "version": 1,
      "categoryIds": [
        "ANSET_01",
        "ANSET_01_ANINT_02"
      ],
      "dataset": "ADSL",
      "variable": "USUBJID",
      "analysisSetId": "AnalysisSet_01",
      "dataSubsetId": "Dss_01",
      "orderedGroupings": [
        {
          "order": 1,
          "resultsByGroup": true,
          "groupingId": "AnlsGrouping_02_Asex"
        }
      ],
      "referencedAnalysisOperations": [
        {
          "referencedOperationRelationshipId": "Mth_02_02_%_NUM",
          "analysisId": "An_04"
        },
        {
          "referencedOperationRelationshipId": "Mth_02_02_%_DEN",
          "analysisId": "An_02"
        }
      ]
    },
    {
      "name": "Summary of Subjects by Treatment and Age, Years",
      "id": "An_05",
      "reason": {
        "controlledTerm": "SPECIFIED IN SAP"
      },
      "purpose": {
        "sponsorTermId": "TermEx01_01"
      },
      "methodId": "Mth_05",
      "version": 1,
      "categoryIds": [
        "ANSET_01",
        "ANSET_01_ANINT_02"
      ],
      "dataset": "ADSL",
      "variable": "AGE",
      "analysisSetId": "AnalysisSet_01",
      "orderedGroupings": [
        {
          "order": 1,
          "resultsByGroup": true,
          "groupingId": "AnlsGrouping_01_Trt01An"
        }
      ]
    },
    {
      "name": "Count of Age, Years by Treatment",
      "id": "An_06",
      "reason": {
        "controlledTerm": "SPECIFIED IN SAP"
      },
      "purpose": {
        "sponsorTermId": "TermEx01_01"
      },
      "methodId": "Mth_05",
      "version": 1,
      "categoryIds": [
        "ANSET_01",
        "ANSET_01_ANINT_02"
      ],
      "dataset": "ADSL",
      "variable": "AGE",
      "analysisSetId": "AnalysisSet_01",
      "dataSubsetId": "Dss_01"
    },
    {
      "name": "Summary of Subjects by Treatment and Age groups (years), n (%)",
      "id": "An_07",
      "reason": {
        "controlledTerm": "SPECIFIED IN SAP"
      },
      "purpose": {
        "sponsorTermId": "TermEx01_01"
      },
      "methodId": "Mth_02",
      "version": 1,
      "categoryIds": [
        "ANSET_01",
        "ANSET_01_ANINT_02"
      ],
      "dataset": "ADSL",
      "variable": "USUBJID",
      "analysisSetId": "AnalysisSet_01",
      "orderedGroupings": [
        {
          "order": 1,
          "resultsByGroup": true,
          "groupingId": "AnlsGrouping_01_Trt01An"
        },
        {
          "order": 2,
          "resultsByGroup": true,
          "groupingId": "AnlsGrouping_03_Agegr1N"
        }
      ],
      "referencedAnalysisOperations": [
        {
          "referencedOperationRelationshipId": "Mth_02_02_%_NUM",
          "analysisId": "An_07"
        },
        {
          "referencedOperationRelationshipId": "Mth_02_02_%_DEN",
          "analysisId": "An_01"
        }
      ]
    },
    {
      "name": "Count of Age groups (years), n (%) by Treatment",
      "id": "An_08",
      "reason": {
        "controlledTerm": "SPECIFIED IN SAP"
      },
      "purpose": {
        "sponsorTermId": "TermEx01_01"
      },
      "methodId": "Mth_02",
      "version": 1,
      "categoryIds": [
        "ANSET_01",
        "ANSET_01_ANINT_02"
      ],
      "dataset": "ADSL",
      "variable": "USUBJID",
      "analysisSetId": "AnalysisSet_01",
      "dataSubsetId": "Dss_01",
      "orderedGroupings": [
        {
          "order": 1,
          "resultsByGroup": true,
          "groupingId": "AnlsGrouping_03_Agegr1N"
        }
      ],
      "referencedAnalysisOperations": [
        {
          "referencedOperationRelationshipId": "Mth_02_02_%_NUM",
          "analysisId": "An_08"
        },
        {
          "referencedOperationRelationshipId": "Mth_02_02_%_DEN",
          "analysisId": "An_02"
        }
      ]
    },
    {
      "name": "Summary of Subjects by Treatment and Race, n (%)",
      "id": "An_09",
      "reason": {
        "controlledTerm": "SPECIFIED IN SAP"
      },
      "purpose": {
        "sponsorTermId": "TermEx01_01"
      },
      "methodId": "Mth_02",
      "version": 1,
      "categoryIds": [
        "ANSET_01",
        "ANSET_01_ANINT_02"
      ],
      "dataset": "ADSL",
      "variable": "USUBJID",
      "analysisSetId": "AnalysisSet_01",
      "orderedGroupings": [
        {
          "order": 1,
          "resultsByGroup": true,
          "groupingId": "AnlsGrouping_01_Trt01An"
        },
        {
          "order": 2,
          "resultsByGroup": true,
          "groupingId": "AnlsGrouping_04_Arace"
        }
      ],
      "referencedAnalysisOperations": [
        {
          "referencedOperationRelationshipId": "Mth_02_02_%_NUM",
          "analysisId": "An_09"
        },
        {
          "referencedOperationRelationshipId": "Mth_02_02_%_DEN",
          "analysisId": "An_01"
        }
      ]
    },
    {
      "name": "Count of Race, n (%) by Treatment",
      "id": "An_10",
      "reason": {
        "controlledTerm": "SPECIFIED IN SAP"
      },
      "purpose": {
        "sponsorTermId": "TermEx01_01"
      },
      "methodId": "Mth_02",
      "version": 1,
      "categoryIds": [
        "ANSET_01",
        "ANSET_01_ANINT_02"
      ],
      "dataset": "ADSL",
      "variable": "USUBJID",
      "analysisSetId": "AnalysisSet_01",
      "dataSubsetId": "Dss_01",
      "orderedGroupings": [
        {
          "order": 1,
          "resultsByGroup": true,
          "groupingId": "AnlsGrouping_04_Arace"
        }
      ],
      "referencedAnalysisOperations": [
        {
          "referencedOperationRelationshipId": "Mth_02_02_%_NUM",
          "analysisId": "An_10"
        },
        {
          "referencedOperationRelationshipId": "Mth_02_02_%_DEN",
          "analysisId": "An_02"
        }
      ]
    },
    {
      "name": "Summary of Subjects by Treatment and Ethnicity, n (%)",
      "id": "An_11",
      "reason": {
        "controlledTerm": "SPECIFIED IN SAP"
      },
      "purpose": {
        "sponsorTermId": "TermEx01_01"
      },
      "methodId": "Mth_02",
      "version": 1,
      "categoryIds": [
        "ANSET_01",
        "ANSET_01_ANINT_02"
      ],
      "dataset": "ADSL",
      "variable": "USUBJID",
      "analysisSetId": "AnalysisSet_01",
      "orderedGroupings": [
        {
          "order": 1,
          "resultsByGroup": true,
          "groupingId": "AnlsGrouping_01_Trt01An"
        },
        {
          "order": 2,
          "resultsByGroup": true,
          "groupingId": "AnlsGrouping_05_Aethnic"
        }
      ],
      "referencedAnalysisOperations": [
        {
          "referencedOperationRelationshipId": "Mth_02_02_%_NUM",
          "analysisId": "An_11"
        },
        {
          "referencedOperationRelationshipId": "Mth_02_02_%_DEN",
          "analysisId": "An_01"
        }
      ]
    },
    {
      "name": "Count of Ethnicity, n (%) by Treatment",
      "id": "An_12",
      "reason": {
        "controlledTerm": "SPECIFIED IN SAP"
      },
      "purpose": {
        "sponsorTermId": "TermEx01_01"
      },
      "methodId": "Mth_02",
      "version": 1,
      "categoryIds": [
        "ANSET_01",
        "ANSET_01_ANINT_02"
      ],
      "dataset": "ADSL",
      "variable": "USUBJID",
      "analysisSetId": "AnalysisSet_01",
      "dataSubsetId": "Dss_01",
      "orderedGroupings": [
        {
          "order": 1,
          "resultsByGroup": true,
          "groupingId": "AnlsGrouping_05_Aethnic"
        }
      ],
      "referencedAnalysisOperations": [
        {
          "referencedOperationRelationshipId": "Mth_02_02_%_NUM",
          "analysisId": "An_12"
        },
        {
          "referencedOperationRelationshipId": "Mth_02_02_%_DEN",
          "analysisId": "An_02"
        }
      ]
    },
    {
      "name": "Summary of Subjects by Treatment and Country of participation, n (%)",
      "id": "An_13",
      "reason": {
        "controlledTerm": "SPECIFIED IN SAP"
      },
      "purpose": {
        "sponsorTermId": "TermEx01_01"
      },
      "methodId": "Mth_02",
      "version": 1,
      "categoryIds": [
        "ANSET_01",
        "ANSET_01_ANINT_02"
      ],
      "dataset": "ADSL",
      "variable": "USUBJID",
      "analysisSetId": "AnalysisSet_01",
      "orderedGroupings": [
        {
          "order": 1,
          "resultsByGroup": true,
          "groupingId": "AnlsGrouping_01_Trt01An"
        },
        {
          "order": 2,
          "resultsByGroup": true,
          "groupingId": "AnlsGrouping_06_Acountry"
        }
      ],
      "referencedAnalysisOperations": [
        {
          "referencedOperationRelationshipId": "Mth_02_02_%_NUM",
          "analysisId": "An_13"
        },
        {
          "referencedOperationRelationshipId": "Mth_02_02_%_DEN",
          "analysisId": "An_01"
        }
      ]
    },
    {
      "name": "Count of Country of participation, n (%) by Treatment",
      "id": "An_14",
      "reason": {
        "controlledTerm": "SPECIFIED IN SAP"
      },
      "purpose": {
        "sponsorTermId": "TermEx01_01"
      },
      "methodId": "Mth_02",
      "version": 1,
      "categoryIds": [
        "ANSET_01",
        "ANSET_01_ANINT_02"
      ],
      "dataset": "ADSL",
      "variable": "USUBJID",
      "analysisSetId": "AnalysisSet_01",
      "dataSubsetId": "Dss_01",
      "orderedGroupings": [
        {
          "order": 1,
          "resultsByGroup": true,
          "groupingId": "AnlsGrouping_06_Acountry"
        }
      ],
      "referencedAnalysisOperations": [
        {
          "referencedOperationRelationshipId": "Mth_02_02_%_NUM",
          "analysisId": "An_14"
        },
        {
          "referencedOperationRelationshipId": "Mth_02_02_%_DEN",
          "analysisId": "An_02"
        }
      ]
    },
    {
      "name": "Summary of Subjects by Treatment and Baseline Weight (kg)",
      "id": "An_15",
      "reason": {
        "controlledTerm": "SPECIFIED IN SAP"
      },
      "purpose": {
        "sponsorTermId": "TermEx01_01"
      },
      "methodId": "Mth_05",
      "version": 1,
      "categoryIds": [
        "ANSET_01",
        "ANSET_01_ANINT_02"
      ],
      "dataset": "ADSL",
      "variable": "WEIGHTBL",
      "analysisSetId": "AnalysisSet_01",
      "orderedGroupings": [
        {
          "order": 1,
          "resultsByGroup": true,
          "groupingId": "AnlsGrouping_01_Trt01An"
        }
      ]
    },
    {
      "name": "Count of Baseline Weight (kg) by Treatment",
      "id": "An_16",
      "reason": {
        "controlledTerm": "SPECIFIED IN SAP"
      },
      "purpose": {
        "sponsorTermId": "TermEx01_01"
      },
      "methodId": "Mth_05",
      "version": 1,
      "categoryIds": [
        "ANSET_01",
        "ANSET_01_ANINT_02"
      ],
      "dataset": "ADSL",
      "variable": "WEIGHTBL",
      "analysisSetId": "AnalysisSet_01",
      "dataSubsetId": "Dss_01"
    },
    {
      "name": "Summary of Subjects by Treatment and Baseline Height (cm)",
      "id": "An_17",
      "reason": {
        "controlledTerm": "SPECIFIED IN SAP"
      },
      "purpose": {
        "sponsorTermId": "TermEx01_01"
      },
      "methodId": "Mth_05",
      "version": 1,
      "categoryIds": [
        "ANSET_01",
        "ANSET_01_ANINT_02"
      ],
      "dataset": "ADSL",
      "variable": "HEIGHTBL",
      "analysisSetId": "AnalysisSet_01",
      "orderedGroupings": [
        {
          "order": 1,
          "resultsByGroup": true,
          "groupingId": "AnlsGrouping_01_Trt01An"
        }
      ]
    },
    {
      "name": "Count of Baseline Height (cm) by Treatment",
      "id": "An_18",
      "reason": {
        "controlledTerm": "SPECIFIED IN SAP"
      },
      "purpose": {
        "sponsorTermId": "TermEx01_01"
      },
      "methodId": "Mth_05",
      "version": 1,
      "categoryIds": [
        "ANSET_01",
        "ANSET_01_ANINT_02"
      ],
      "dataset": "ADSL",
      "variable": "HEIGHTBL",
      "analysisSetId": "AnalysisSet_01",
      "dataSubsetId": "Dss_01"
    },
    {
      "name": "Summary of Subjects by Treatment and Baseline BMI (kg/m^2)",
      "id": "An_19",
      "reason": {
        "controlledTerm": "SPECIFIED IN SAP"
      },
      "purpose": {
        "sponsorTermId": "TermEx01_01"
      },
      "methodId": "Mth_05",
      "version": 1,
      "categoryIds": [
        "ANSET_01",
        "ANSET_01_ANINT_02"
      ],
      "dataset": "ADSL",
      "variable": "BMIBL",
      "analysisSetId": "AnalysisSet_01",
      "orderedGroupings": [
        {
          "order": 1,
          "resultsByGroup": true,
          "groupingId": "AnlsGrouping_01_Trt01An"
        }
      ]
    },
    {
      "name": "Count of Baseline BMI (kg/m^2) by Treatment",
      "id": "An_20",
      "reason": {
        "controlledTerm": "SPECIFIED IN SAP"
      },
      "purpose": {
        "sponsorTermId": "TermEx01_01"
      },
      "methodId": "Mth_05",
      "version": 1,
      "categoryIds": [
        "ANSET_01",
        "ANSET_01_ANINT_02"
      ],
      "dataset": "ADSL",
      "variable": "BMIBL",
      "analysisSetId": "AnalysisSet_01",
      "dataSubsetId": "Dss_01"
    },
    {
      "name": "Summary of Subjects by Treatment and Duration of Disease (Months)",
      "id": "An_21",
      "reason": {
        "controlledTerm": "SPECIFIED IN SAP"
      },
      "purpose": {
        "sponsorTermId": "TermEx01_01"
      },
      "methodId": "Mth_05",
      "version": 1,
      "categoryIds": [
        "ANSET_01",
        "ANSET_01_ANINT_02"
      ],
      "dataset": "ADSL",
      "variable": "DURDIS",
      "analysisSetId": "AnalysisSet_01",
      "dataSubsetId": "Dss_02",
      "orderedGroupings": [
        {
          "order": 1,
          "resultsByGroup": true,
          "groupingId": "AnlsGrouping_01_Trt01An"
        }
      ]
    },
    {
      "name": "Count of Duration of Disease (Months) by Treatment",
      "id": "An_22",
      "reason": {
        "controlledTerm": "SPECIFIED IN SAP"
      },
      "purpose": {
        "sponsorTermId": "TermEx01_01"
      },
      "methodId": "Mth_05",
      "version": 1,
      "categoryIds": [
        "ANSET_01",
        "ANSET_01_ANINT_02"
      ],
      "dataset": "ADSL",
      "variable": "DURDIS",
      "analysisSetId": "AnalysisSet_01",
      "dataSubsetId": "Dss_01"
    }
  ],
  "globalDisplaySections": [
    {
      "sectionType": "Title",
      "subSections": [
        {
          "id": "GlobalDisp_Header_01",
          "text": "CDISC - eTFL Portal"
        },
        {
          "id": "GlobalDisp_Header_02",
          "text": "Generated using TFL Designer (Community, v1.0)"
        },
        {
          "id": "GlobalDisp_Header_03",
          "text": "Page x of y"
        }
      ],
      "shellType": "Table"
    }
  ],
  "outputs": [
    {
      "name": "Baseline Demographic and Clinical Characteristics",
      "id": "Out_01",
      "version": 1,
      "displays": [
        {
          "order": 1,
          "display": {
            "id": "Disp_01",
            "name": "Baseline Demographic and Clinical Characteristics",
            "version": 1,
            "displayTitle": "Baseline Demographic and Clinical Characteristics",
            "displaySections": [
              {
                "sectionType": "Title",
                "orderedSubSections": [
                  {
                    "order": 1,
                    "subSection": {
                      "id": "Disp_01_Title_01",
                      "text": "FDA-DM-T02"
                    }
                  },
                  {
                    "order": 2,
                    "subSection": {
                      "id": "Disp_01_Title_02",
                      "text": "Baseline Demographic and Clinical Characteristics"
                    }
                  },
                  {
                    "order": 3,
                    "subSection": {
                      "id": "Disp_01_Title_03",
                      "text": "Safety Population"
                    }
                  }
                ]
              },
              {
                "sectionType": "Footnote",
                "orderedSubSections": [
                  {
                    "order": 1,
                    "subSection": {
                      "id": "Disp_01_Footnote_01",
                      "text": "Source: ADSL; Program name: fda-dm-t02.sas"
                    }
                  },
                  {
                    "order": 2,
                    "subSection": {
                      "id": "Disp_01_Footnote_02",
                      "text": "Abbreviations: N, number of subjects in treatment arm; n, number of subjects with given characteristic; SD, standard deviation"
                    }
                  }
                ]
              },
              {
                "sectionType": "Rowlabel Header",
                "orderedSubSections": [
                  {
                    "order": 1,
                    "subSection": {
                      "id": "Disp_01_RowlabelHeader_01",
                      "text": "Characteristics"
                    }
                  }
                ]
              }
            ]
          }
        }
      ],
      "categoryIds": [
        "ANSET_01",
        "ANSET_01_ANINT_02"
      ]
    }
  ],
  "@type": "ReportingEvent"
}
