{
  "name": "Summary of Observed and Change from Baseline by Scheduled Visits - Vital Signs",
  "id": "ARS-VS-T01",
  "mainListOfContents": {
    "name": "List of Planned Analyses",
    "label": "LOPA",
    "contentsList": {
      "listItems": [
        {
          "name": "Summary of Observed and Change from Baseline by Scheduled Visits - Vital Signs",
          "level": 1,
          "order": 1,
          "outputId": "Out_12",
          "sublist": {
            "listItems": [
              {
                "name": "    Summary of Subjects by Treatment",
                "level": 2,
                "order": 1,
                "analysisId": "An_98"
              },
              {
                "name": "    Parameter (Unit)",
                "level": 2,
                "order": 2,
                "sublist": {
                  "listItems": [
                    {
                      "name": "        Baseline",
                      "level": 3,
                      "order": 1,
                      "sublist": {
                        "listItems": [
                          {
                            "name": "            Baseline Value",
                            "level": 4,
                            "order": 1,
                            "sublist": {
                              "listItems": [
                                {
                                  "name": "                Summary of Baseline Value by Treatment and Parameter (Unit)",
                                  "level": 5,
                                  "order": 1,
                                  "analysisId": "An_101"
                                }
                              ]
                            }
                          }
                        ]
                      }
                    },
                    {
                      "name": "        <Visit n>",
                      "level": 3,
                      "order": 2,
                      "sublist": {
                        "listItems": [
                          {
                            "name": "            Baseline Value",
                            "level": 4,
                            "order": 1,
                            "sublist": {
                              "listItems": [
                                {
                                  "name": "                Summary of Analysis Value by Treatment, Parameter (Unit) and Visit",
                                  "level": 5,
                                  "order": 1,
                                  "analysisId": "An_103"
                                }
                              ]
                            }
                          }
                        ]
                      }
                    },
                    {
                      "name": "        <Visit n Change from Baseline>",
                      "level": 3,
                      "order": 3,
                      "sublist": {
                        "listItems": [
                          {
                            "name": "            Baseline Value",
                            "level": 4,
                            "order": 1,
                            "sublist": {
                              "listItems": [
                                {
                                  "name": "                Summary of Change from Baseline by Treatment, Parameter (Unit) and Visit",
                                  "level": 5,
                                  "order": 1,
                                  "analysisId": "An_105"
                                }
                              ]
                            }
                          }
                        ]
                      }
                    }
                  ]
                }
              }
            ]
          }
        }
      ]
    }
  },
  "version": 1,
  "otherListsOfContents": [
    {
      "name": "List of Planned Outputs",
      "label": "LOPO",
      "contentsList": {
        "listItems": [
          {
            "name": "Summary of Observed and Change from Baseline by Scheduled Visits - Vital Signs",
            "level": 1,
            "order": 1,
            "outputId": "Out_12"
          }
        ]
      }
    }
  ],
  "terminologyExtensions": [
    {
      "id": "TermEx01",
      "sponsorTerms": [
        {
          "id": "TermEx01_01",
          "submissionValue": "POPULATION SUMMARY",
          "description": "Summary statistics describing the study population(s)."
        }
      ],
      "enumeration": "AnalysisPurposeEnum"
    }
  ],
  "analysisOutputCategorizations": [
    {
      "id": "ANSET",
      "categories": [
        {
          "id": "ANSET_01",
          "label": "Safety",
          "subCategorizations": [
            {
              "id": "ANSET_01_ANINT",
              "categories": [
                {
                  "id": "ANSET_01_ANINT_06",
                  "label": "Vital Signs"
                }
              ],
              "label": "Safety Analysis Of Interest"
            }
          ]
        }
      ],
      "label": "Analysis Sets"
    }
  ],
  "analysisSets": [
    {
      "name": "Safety Population",
      "description": "All patients randomized and known to have taken at least one dose of randomized drug.",
      "id": "AnalysisSet_01",
      "level": 1,
      "order": 1,
      "condition": {
        "dataset": "ADSL",
        "variable": "SAFFL",
        "comparator": "EQ",
        "value": [
          "Y"
        ]
      }
    }
  ],
  "dataSubsets": [
    {
      "name": "Baseline Parameter",
      "id": "Dss_35",
      "level": 1,
      "order": 1,
      "compoundExpression": {
        "logicalOperator": "AND",
        "whereClauses": [
          {
            "level": 2,
            "order": 1,
            "condition": {
              "dataset": "ADVS",
              "variable": "PARAM",
              "comparator": "NE"
            }
          },
          {
            "level": 2,
            "order": 2,
            "condition": {
              "dataset": "ADVS",
              "variable": "AVISIT",
              "comparator": "EQ",
              "value": [
                "Baseline"
              ]
            }
          }
        ]
      }
    },
    {
      "name": "Non-baseline Parameter",
      "id": "Dss_36",
      "level": 1,
      "order": 1,
      "compoundExpression": {
        "logicalOperator": "AND",
        "whereClauses": [
          {
            "level": 2,
            "order": 1,
            "condition": {
              "dataset": "ADVS",
              "variable": "PARAM",
              "comparator": "NE"
            }
          },
          {
            "level": 2,
            "order": 2,
            "condition": {
              "dataset": "ADVS",
              "variable": "AVISIT",
              "comparator": "NE",
              "value": [
                "Baseline"
              ]
            }
          }
        ]
      }
    },
    {
      "name": "Non-baseline Parameter with Change",
      "id": "Dss_37",
      "level": 1,
      "order": 1,
      "compoundExpression": {
        "logicalOperator": "AND",
        "whereClauses": [
          {
            "level": 2,
            "order": 1,
            "condition": {
              "dataset": "ADVS",
              "variable": "PARAM",
              "comparator": "NE"
            }
          },
          {
            "level": 2,
            "order": 2,
            "condition": {
              "dataset": "ADVS",
              "variable": "AVISIT",
              "comparator": "NE",
              "value": [
                "Baseline"
              ]
            }
          },
          {
            "level": 2,
            "order": 3,
            "condition": {
              "dataset": "ADVS",
              "variable": "CHG",
              "comparator": "NE"
            }
          }
        ]
      }
    }
  ],
  "analysisGroupings": [
    {
      "name": "Treatment",
      "id": "AnlsGrouping_57_Trt01An",
      "dataDriven": false,
      "groupingDataset": "ADSL",
      "groupingVariable": "TRT01AN",
      "groups": [
        {
          "name": "Xanomeline Low Dose \n(N=XX)",
          "id": "AnlsGrouping_57_Trt01An_01",
          "level": 1,
          "order": 1,
          "condition": {
            "dataset": "ADSL",
            "variable": "TRT01AN",
            "comparator": "EQ",
            "value": [
              "1"
            ]
          }
        },
        {
          "name": "Xanomeline High Dose \n(N=XX)",
          "id": "AnlsGrouping_57_Trt01An_02",
          "level": 1,
          "order": 2,
          "condition": {
            "dataset": "ADSL",
            "variable": "TRT01AN",
            "comparator": "EQ",
            "value": [
              "2"
            ]
          }
        },
        {
          "name": "Placebo \n(N=XX)",
          "id": "AnlsGrouping_57_Trt01An_03",
          "level": 1,
          "order": 3,
          "condition": {
            "dataset": "ADSL",
            "variable": "TRT01AN",
            "comparator": "EQ",
            "value": [
              "3"
            ]
          }
        }
      ]
    },
    {
      "name": "Parameter",
      "label": "Parameter (Unit)",
      "id": "AnlsGrouping_58_Param",
      "dataDriven": true,
      "groupingDataset": "ADVS",
      "groupingVariable": "PARAM"
    },
    {
      "name": "Visit",
      "label": "<Visit n>",
      "id": "AnlsGrouping_60_Aval",
      "dataDriven": true,
      "groupingDataset": "ADVS",
      "groupingVariable": "AVISIT"
    },
    {
      "name": "Visit",
      "label": "<Visit n Change from Baseline>",
      "id": "AnlsGrouping_61_Chg",
      "dataDriven": true,
      "groupingDataset": "ADVS",
      "groupingVariable": "AVISIT"
    }
  ],
  "methods": [
    {
      "name": "bigN",
      "description": "Grouped summary of categorical variable",
      "label": "Descriptive summary statistics across groups for a categorical variable, based on subject occurrence",
      "id": "Mth_00_1",
      "operations": [
        {
          "name": "n",
          "label": "n",
          "id": "Mth_00_1_01_n",
          "order": 1,
          "resultPattern": "(N=XX)"
        }
      ],
      "codeTemplate": {
        "context": "R (siera)",
        "code": "in_data = df2_analysisidhere |>\n    dplyr::select(distinctlisthere) |>\n    unique() |>\n    dplyr::mutate(dummy = 'dummyvar')\n\ndf3_analysisidhere <-\n  cards::ard_tabulate(\n    data = in_data\n   ,by = c(byvarshere)\n   ,variables = dummy\n  ) |>\ndplyr::filter(stat_name == 'n') |>\n dplyr::mutate(operationid = 'opid1here')",
        "parameters": [
          {
            "name": "distinctlisthere",
            "label": "distinct list",
            "description": "grouping+analysis vars",
            "valueSource": "distinct_list"
          },
          {
            "name": "byvarshere",
            "label": "by vars",
            "description": "by-variable character vector",
            "valueSource": "by_listc"
          },
          {
            "name": "opid1here",
            "label": "op 1 id",
            "description": "Operation 1 ID",
            "valueSource": "operation_1"
          }
        ]
      }
    },
    {
      "name": "Summary by group of a continuous variable",
      "description": "Descriptive summary statistics across groups for a continuous variable",
      "label": "Grouped summary of continuous variable",
      "id": "Mth_06",
      "operations": [
        {
          "name": "n",
          "label": "n",
          "id": "Mth_06_01_n",
          "order": 1,
          "resultPattern": "XX"
        },
        {
          "name": "Mean",
          "label": "Mean",
          "id": "Mth_06_02_Mean",
          "order": 2,
          "resultPattern": "XX.X"
        },
        {
          "name": "SD",
          "label": "SD",
          "id": "Mth_06_03_SD",
          "order": 3,
          "resultPattern": "(XX.XX)"
        },
        {
          "name": "Median",
          "label": "Median",
          "id": "Mth_06_04_Median",
          "order": 4,
          "resultPattern": "XX.X"
        },
        {
          "name": "Q1",
          "label": "Q1",
          "id": "Mth_06_05_Q1",
          "order": 5,
          "resultPattern": "XX.X"
        },
        {
          "name": "Q3",
          "label": "Q3",
          "id": "Mth_06_06_Q3",
          "order": 6,
          "resultPattern": "XX.X"
        },
        {
          "name": "Min",
          "label": "Min",
          "id": "Mth_06_07_Min",
          "order": 7,
          "resultPattern": "XX.X"
        },
        {
          "name": "Max",
          "label": "Max",
          "id": "Mth_06_08_Max",
          "order": 8,
          "resultPattern": "XX.X"
        }
      ],
      "codeTemplate": {
        "context": "R (siera)",
        "code": "in_data = df2_analysisidhere |>\n    dplyr::select(distinctlisthere)\n\ndf3_analysisidhere <-\n  cards::ard_summary(\n    data = in_data\n   ,by = c(byvarshere)\n   ,variables = c('anavarhere')\n   ,statistic = list('anavarhere' =\n       cards::continuous_summary_fns(\n           c(\"N\",\"mean\",\"sd\",\"median\",\"p25\",\"p75\",\"min\",\"max\")))\n  ) |>\n dplyr::mutate(operationid = dplyr::case_when(\n    stat_name == 'N'      ~ 'opid1here',\n    stat_name == 'mean'   ~ 'opid2here',\n    stat_name == 'sd'     ~ 'opid3here',\n    stat_name == 'median' ~ 'opid4here',\n    stat_name == 'p25'    ~ 'opid5here',\n    stat_name == 'p75'    ~ 'opid6here',\n    stat_name == 'min'    ~ 'opid7here',\n    stat_name == 'max'    ~ 'opid8here'\n  ))",
        "parameters": [
          {
            "name": "distinctlisthere",
            "label": "distinct list",
            "description": "grouping+analysis vars",
            "valueSource": "distinct_list"
          },
          {
            "name": "byvarshere",
            "label": "by vars",
            "description": "by-variable character vector",
            "valueSource": "by_listc"
          },
          {
            "name": "anavarhere",
            "label": "ana var",
            "description": "Analysis variable name",
            "valueSource": "ana_var"
          },
          {
            "name": "opid1here",
            "label": "N id",
            "description": "Operation ID for N",
            "valueSource": "operation_1"
          },
          {
            "name": "opid2here",
            "label": "mean id",
            "description": "Operation ID for Mean",
            "valueSource": "operation_2"
          },
          {
            "name": "opid3here",
            "label": "SD id",
            "description": "Operation ID for SD",
            "valueSource": "operation_3"
          },
          {
            "name": "opid4here",
            "label": "median id",
            "description": "Operation ID for Median",
            "valueSource": "operation_4"
          },
          {
            "name": "opid5here",
            "label": "Q1 id",
            "description": "Operation ID for Q1",
            "valueSource": "operation_5"
          },
          {
            "name": "opid6here",
            "label": "Q3 id",
            "description": "Operation ID for Q3",
            "valueSource": "operation_6"
          },
          {
            "name": "opid7here",
            "label": "min id",
            "description": "Operation ID for Min",
            "valueSource": "operation_7"
          },
          {
            "name": "opid8here",
            "label": "max id",
            "description": "Operation ID for Max",
            "valueSource": "operation_8"
          }
        ]
      }
    }
  ],
  "analyses": [
    {
      "name": "Summary of Subjects by Treatment",
      "id": "An_98",
      "reason": {
        "controlledTerm": "SPECIFIED IN SAP"
      },
      "purpose": {
        "sponsorTermId": "TermEx01_01"
      },
      "methodId": "Mth_00_1",
      "version": 1,
      "categoryIds": [
        "ANSET_01",
        "ANSET_01_ANINT_06"
      ],
      "dataset": "ADVS",
      "variable": "USUBJID",
      "analysisSetId": "AnalysisSet_01",
      "orderedGroupings": [
        {
          "order": 1,
          "groupingId": "AnlsGrouping_57_Trt01An",
          "resultsByGroup": true
        }
      ],
      "results": [
        {
          "operationId": "Mth_00_1_01_n",
          "resultGroups": [
            {
              "groupingId": "AnlsGrouping_57_Trt01An",
              "groupId": "AnlsGrouping_57_Trt01An_01"
            }
          ],
          "rawValue": "84",
          "formattedValue": "(N=84)"
        },
        {
          "operationId": "Mth_00_1_01_n",
          "resultGroups": [
            {
              "groupingId": "AnlsGrouping_57_Trt01An",
              "groupId": "AnlsGrouping_57_Trt01An_02"
            }
          ],
          "rawValue": "84",
          "formattedValue": "(N=84)"
        },
        {
          "operationId": "Mth_00_1_01_n",
          "resultGroups": [
            {
              "groupingId": "AnlsGrouping_57_Trt01An",
              "groupId": "AnlsGrouping_57_Trt01An_03"
            }
          ],
          "rawValue": "86",
          "formattedValue": "(N=86)"
        }
      ]
    },
    {
      "name": "Summary of Baseline Value by Treatment and Parameter (Unit)",
      "id": "An_101",
      "reason": {
        "controlledTerm": "SPECIFIED IN SAP"
      },
      "purpose": {
        "controlledTerm": "PRIMARY OUTCOME MEASURE"
      },
      "methodId": "Mth_06",
      "version": 1,
      "categoryIds": [
        "ANSET_01",
        "ANSET_01_ANINT_06"
      ],
      "dataset": "ADVS",
      "variable": "BASE",
      "analysisSetId": "AnalysisSet_01",
      "dataSubsetId": "Dss_35",
      "orderedGroupings": [
        {
          "order": 1,
          "groupingId": "AnlsGrouping_57_Trt01An",
          "resultsByGroup": true
        },
        {
          "order": 2,
          "groupingId": "AnlsGrouping_58_Param",
          "resultsByGroup": true
        }
      ],
      "results": [
        {
          "operationId": "Mth_06_01_n",
          "resultGroups": [
            {
              "groupingId": "AnlsGrouping_57_Trt01An",
              "groupId": "AnlsGrouping_57_Trt01An_01"
            },
            {
              "groupingId": "AnlsGrouping_58_Param",
              "groupValue": "Diastolic Blood Pressure (mmHg)"
            }
          ],
          "rawValue": "252",
          "formattedValue": "252"
        },
        {
          "operationId": "Mth_06_01_n",
          "resultGroups": [
            {
              "groupingId": "AnlsGrouping_57_Trt01An",
              "groupId": "AnlsGrouping_57_Trt01An_01"
            },
            {
              "groupingId": "AnlsGrouping_58_Param",
              "groupValue": "Pulse Rate (beats/min)"
            }
          ],
          "rawValue": "252",
          "formattedValue": "252"
        },
        {
          "operationId": "Mth_06_01_n",
          "resultGroups": [
            {
              "groupingId": "AnlsGrouping_57_Trt01An",
              "groupId": "AnlsGrouping_57_Trt01An_01"
            },
            {
              "groupingId": "AnlsGrouping_58_Param",
              "groupValue": "Systolic Blood Pressure (mmHg)"
            }
          ],
          "rawValue": "252",
          "formattedValue": "252"
        },
        {
          "operationId": "Mth_06_01_n",
          "resultGroups": [
            {
              "groupingId": "AnlsGrouping_57_Trt01An",
              "groupId": "AnlsGrouping_57_Trt01An_01"
            },
            {
              "groupingId": "AnlsGrouping_58_Param",
              "groupValue": "Temperature (C)"
            }
          ],
          "rawValue": "83",
          "formattedValue": "83"
        },
        {
          "operationId": "Mth_06_01_n",
          "resultGroups": [
            {
              "groupingId": "AnlsGrouping_57_Trt01An",
              "groupId": "AnlsGrouping_57_Trt01An_01"
            },
            {
              "groupingId": "AnlsGrouping_58_Param",
              "groupValue": "Weight (kg)"
            }
          ],
          "rawValue": "83",
          "formattedValue": "83"
        },
        {
          "operationId": "Mth_06_01_n",
          "resultGroups": [
            {
              "groupingId": "AnlsGrouping_57_Trt01An",
              "groupId": "AnlsGrouping_57_Trt01An_02"
            },
            {
              "groupingId": "AnlsGrouping_58_Param",
              "groupValue": "Diastolic Blood Pressure (mmHg)"
            }
          ],
          "rawValue": "252",
          "formattedValue": "252"
        },
        {
          "operationId": "Mth_06_01_n",
          "resultGroups": [
            {
              "groupingId": "AnlsGrouping_57_Trt01An",
              "groupId": "AnlsGrouping_57_Trt01An_02"
            },
            {
              "groupingId": "AnlsGrouping_58_Param",
              "groupValue": "Pulse Rate (beats/min)"
            }
          ],
          "rawValue": "252",
          "formattedValue": "252"
        },
        {
          "operationId": "Mth_06_01_n",
          "resultGroups": [
            {
              "groupingId": "AnlsGrouping_57_Trt01An",
              "groupId": "AnlsGrouping_57_Trt01An_02"
            },
            {
              "groupingId": "AnlsGrouping_58_Param",
              "groupValue": "Systolic Blood Pressure (mmHg)"
            }
          ],
          "rawValue": "252",
          "formattedValue": "252"
        },
        {
          "operationId": "Mth_06_01_n",
          "resultGroups": [
            {
              "groupingId": "AnlsGrouping_57_Trt01An",
              "groupId": "AnlsGrouping_57_Trt01An_02"
            },
            {
              "groupingId": "AnlsGrouping_58_Param",
              "groupValue": "Temperature (C)"
            }
          ],
          "rawValue": "84",
          "formattedValue": "84"
        },
        {
          "operationId": "Mth_06_01_n",
          "resultGroups": [
            {
              "groupingId": "AnlsGrouping_57_Trt01An",
              "groupId": "AnlsGrouping_57_Trt01An_02"
            },
            {
              "groupingId": "AnlsGrouping_58_Param",
              "groupValue": "Weight (kg)"
            }
          ],
          "rawValue": "84",
          "formattedValue": "84"
        },
        {
          "operationId": "Mth_06_01_n",
          "resultGroups": [
            {
              "groupingId": "AnlsGrouping_57_Trt01An",
              "groupId": "AnlsGrouping_57_Trt01An_03"
            },
            {
              "groupingId": "AnlsGrouping_58_Param",
              "groupValue": "Diastolic Blood Pressure (mmHg)"
            }
          ],
          "rawValue": "255",
          "formattedValue": "255"
        },
        {
          "operationId": "Mth_06_01_n",
          "resultGroups": [
            {
              "groupingId": "AnlsGrouping_57_Trt01An",
              "groupId": "AnlsGrouping_57_Trt01An_03"
            },
            {
              "groupingId": "AnlsGrouping_58_Param",
              "groupValue": "Pulse Rate (beats/min)"
            }
          ],
          "rawValue": "255",
          "formattedValue": "255"
        },
        {
          "operationId": "Mth_06_01_n",
          "resultGroups": [
            {
              "groupingId": "AnlsGrouping_57_Trt01An",
              "groupId": "AnlsGrouping_57_Trt01An_03"
            },
            {
              "groupingId": "AnlsGrouping_58_Param",
              "groupValue": "Systolic Blood Pressure (mmHg)"
            }
          ],
          "rawValue": "255",
          "formattedValue": "255"
        },
        {
          "operationId": "Mth_06_01_n",
          "resultGroups": [
            {
              "groupingId": "AnlsGrouping_57_Trt01An",
              "groupId": "AnlsGrouping_57_Trt01An_03"
            },
            {
              "groupingId": "AnlsGrouping_58_Param",
              "groupValue": "Temperature (C)"
            }
          ],
          "rawValue": "86",
          "formattedValue": "86"
        },
        {
          "operationId": "Mth_06_01_n",
          "resultGroups": [
            {
              "groupingId": "AnlsGrouping_57_Trt01An",
              "groupId": "AnlsGrouping_57_Trt01An_03"
            },
            {
              "groupingId": "AnlsGrouping_58_Param",
              "groupValue": "Weight (kg)"
            }
          ],
          "rawValue": "86",
          "formattedValue": "86"
        },
        {
          "operationId": "Mth_06_02_Mean",
          "resultGroups": [
            {
              "groupingId": "AnlsGrouping_57_Trt01An",
              "groupId": "AnlsGrouping_57_Trt01An_01"
            },
            {
              "groupingId": "AnlsGrouping_58_Param",
              "groupValue": "Diastolic Blood Pressure (mmHg)"
            }
          ],
          "rawValue": "76.357142857",
          "formattedValue": "76.4"
        },
        {
          "operationId": "Mth_06_02_Mean",
          "resultGroups": [
            {
              "groupingId": "AnlsGrouping_57_Trt01An",
              "groupId": "AnlsGrouping_57_Trt01An_01"
            },
            {
              "groupingId": "AnlsGrouping_58_Param",
              "groupValue": "Pulse Rate (beats/min)"
            }
          ],
          "rawValue": "71.496031746",
          "formattedValue": "71.5"
        },
        {
          "operationId": "Mth_06_02_Mean",
          "resultGroups": [
            {
              "groupingId": "AnlsGrouping_57_Trt01An",
              "groupId": "AnlsGrouping_57_Trt01An_01"
            },
            {
              "groupingId": "AnlsGrouping_58_Param",
              "groupValue": "Systolic Blood Pressure (mmHg)"
            }
          ],
          "rawValue": "136.90873016",
          "formattedValue": "136.9"
        },
        {
          "operationId": "Mth_06_02_Mean",
          "resultGroups": [
            {
              "groupingId": "AnlsGrouping_57_Trt01An",
              "groupId": "AnlsGrouping_57_Trt01An_01"
            },
            {
              "groupingId": "AnlsGrouping_58_Param",
              "groupValue": "Temperature (C)"
            }
          ],
          "rawValue": "36.555542169",
          "formattedValue": "36.556"
        },
        {
          "operationId": "Mth_06_02_Mean",
          "resultGroups": [
            {
              "groupingId": "AnlsGrouping_57_Trt01An",
              "groupId": "AnlsGrouping_57_Trt01An_01"
            },
            {
              "groupingId": "AnlsGrouping_58_Param",
              "groupValue": "Weight (kg)"
            }
          ],
          "rawValue": "67.274216867",
          "formattedValue": "67.274"
        },
        {
          "operationId": "Mth_06_02_Mean",
          "resultGroups": [
            {
              "groupingId": "AnlsGrouping_57_Trt01An",
              "groupId": "AnlsGrouping_57_Trt01An_02"
            },
            {
              "groupingId": "AnlsGrouping_58_Param",
              "groupValue": "Diastolic Blood Pressure (mmHg)"
            }
          ],
          "rawValue": "78.265873016",
          "formattedValue": "78.3"
        },
        {
          "operationId": "Mth_06_02_Mean",
          "resultGroups": [
            {
              "groupingId": "AnlsGrouping_57_Trt01An",
              "groupId": "AnlsGrouping_57_Trt01An_02"
            },
            {
              "groupingId": "AnlsGrouping_58_Param",
              "groupValue": "Pulse Rate (beats/min)"
            }
          ],
          "rawValue": "73.007936508",
          "formattedValue": "73.0"
        },
        {
          "operationId": "Mth_06_02_Mean",
          "resultGroups": [
            {
              "groupingId": "AnlsGrouping_57_Trt01An",
              "groupId": "AnlsGrouping_57_Trt01An_02"
            },
            {
              "groupingId": "AnlsGrouping_58_Param",
              "groupValue": "Systolic Blood Pressure (mmHg)"
            }
          ],
          "rawValue": "138.77380952",
          "formattedValue": "138.8"
        },
        {
          "operationId": "Mth_06_02_Mean",
          "resultGroups": [
            {
              "groupingId": "AnlsGrouping_57_Trt01An",
              "groupId": "AnlsGrouping_57_Trt01An_02"
            },
            {
              "groupingId": "AnlsGrouping_58_Param",
              "groupValue": "Temperature (C)"
            }
          ],
          "rawValue": "36.561190476",
          "formattedValue": "36.561"
        },
        {
          "operationId": "Mth_06_02_Mean",
          "resultGroups": [
            {
              "groupingId": "AnlsGrouping_57_Trt01An",
              "groupId": "AnlsGrouping_57_Trt01An_02"
            },
            {
              "groupingId": "AnlsGrouping_58_Param",
              "groupValue": "Weight (kg)"
            }
          ],
          "rawValue": "69.998809524",
          "formattedValue": "69.999"
        },
        {
          "operationId": "Mth_06_02_Mean",
          "resultGroups": [
            {
              "groupingId": "AnlsGrouping_57_Trt01An",
              "groupId": "AnlsGrouping_57_Trt01An_03"
            },
            {
              "groupingId": "AnlsGrouping_58_Param",
              "groupValue": "Diastolic Blood Pressure (mmHg)"
            }
          ],
          "rawValue": "77.094117647",
          "formattedValue": "77.1"
        },
        {
          "operationId": "Mth_06_02_Mean",
          "resultGroups": [
            {
              "groupingId": "AnlsGrouping_57_Trt01An",
              "groupId": "AnlsGrouping_57_Trt01An_03"
            },
            {
              "groupingId": "AnlsGrouping_58_Param",
              "groupValue": "Pulse Rate (beats/min)"
            }
          ],
          "rawValue": "73.521568627",
          "formattedValue": "73.5"
        },
        {
          "operationId": "Mth_06_02_Mean",
          "resultGroups": [
            {
              "groupingId": "AnlsGrouping_57_Trt01An",
              "groupId": "AnlsGrouping_57_Trt01An_03"
            },
            {
              "groupingId": "AnlsGrouping_58_Param",
              "groupValue": "Systolic Blood Pressure (mmHg)"
            }
          ],
          "rawValue": "136.80784314",
          "formattedValue": "136.8"
        },
        {
          "operationId": "Mth_06_02_Mean",
          "resultGroups": [
            {
              "groupingId": "AnlsGrouping_57_Trt01An",
              "groupId": "AnlsGrouping_57_Trt01An_03"
            },
            {
              "groupingId": "AnlsGrouping_58_Param",
              "groupValue": "Temperature (C)"
            }
          ],
          "rawValue": "36.589418605",
          "formattedValue": "36.589"
        },
        {
          "operationId": "Mth_06_02_Mean",
          "resultGroups": [
            {
              "groupingId": "AnlsGrouping_57_Trt01An",
              "groupId": "AnlsGrouping_57_Trt01An_03"
            },
            {
              "groupingId": "AnlsGrouping_58_Param",
              "groupValue": "Weight (kg)"
            }
          ],
          "rawValue": "62.75744186",
          "formattedValue": "62.757"
        },
        {
          "operationId": "Mth_06_03_SD",
          "resultGroups": [
            {
              "groupingId": "AnlsGrouping_57_Trt01An",
              "groupId": "AnlsGrouping_57_Trt01An_01"
            },
            {
              "groupingId": "AnlsGrouping_58_Param",
              "groupValue": "Diastolic Blood Pressure (mmHg)"
            }
          ],
          "rawValue": "10.251004643",
          "formattedValue": "(10.25)"
        },
        {
          "operationId": "Mth_06_03_SD",
          "resultGroups": [
            {
              "groupingId": "AnlsGrouping_57_Trt01An",
              "groupId": "AnlsGrouping_57_Trt01An_01"
            },
            {
              "groupingId": "AnlsGrouping_58_Param",
              "groupValue": "Pulse Rate (beats/min)"
            }
          ],
          "rawValue": "10.535274845",
          "formattedValue": "(10.54)"
        },
        {
          "operationId": "Mth_06_03_SD",
          "resultGroups": [
            {
              "groupingId": "AnlsGrouping_57_Trt01An",
              "groupId": "AnlsGrouping_57_Trt01An_01"
            },
            {
              "groupingId": "AnlsGrouping_58_Param",
              "groupValue": "Systolic Blood Pressure (mmHg)"
            }
          ],
          "rawValue": "17.565914657",
          "formattedValue": "(17.57)"
        },
        {
          "operationId": "Mth_06_03_SD",
          "resultGroups": [
            {
              "groupingId": "AnlsGrouping_57_Trt01An",
              "groupId": "AnlsGrouping_57_Trt01An_01"
            },
            {
              "groupingId": "AnlsGrouping_58_Param",
              "groupValue": "Temperature (C)"
            }
          ],
          "rawValue": "0.4034281542",
          "formattedValue": "(0.4034)"
        },
        {
          "operationId": "Mth_06_03_SD",
          "resultGroups": [
            {
              "groupingId": "AnlsGrouping_57_Trt01An",
              "groupId": "AnlsGrouping_57_Trt01An_01"
            },
            {
              "groupingId": "AnlsGrouping_58_Param",
              "groupValue": "Weight (kg)"
            }
          ],
          "rawValue": "14.125069231",
          "formattedValue": "(14.1251)"
        },
        {
          "operationId": "Mth_06_03_SD",
          "resultGroups": [
            {
              "groupingId": "AnlsGrouping_57_Trt01An",
              "groupId": "AnlsGrouping_57_Trt01An_02"
            },
            {
              "groupingId": "AnlsGrouping_58_Param",
              "groupValue": "Diastolic Blood Pressure (mmHg)"
            }
          ],
          "rawValue": "10.270288735",
          "formattedValue": "(10.27)"
        },
        {
          "operationId": "Mth_06_03_SD",
          "resultGroups": [
            {
              "groupingId": "AnlsGrouping_57_Trt01An",
              "groupId": "AnlsGrouping_57_Trt01An_02"
            },
            {
              "groupingId": "AnlsGrouping_58_Param",
              "groupValue": "Pulse Rate (beats/min)"
            }
          ],
          "rawValue": "10.497198284",
          "formattedValue": "(10.50)"
        },
        {
          "operationId": "Mth_06_03_SD",
          "resultGroups": [
            {
              "groupingId": "AnlsGrouping_57_Trt01An",
              "groupId": "AnlsGrouping_57_Trt01An_02"
            },
            {
              "groupingId": "AnlsGrouping_58_Param",
              "groupValue": "Systolic Blood Pressure (mmHg)"
            }
          ],
          "rawValue": "18.73574966",
          "formattedValue": "(18.74)"
        },
        {
          "operationId": "Mth_06_03_SD",
          "resultGroups": [
            {
              "groupingId": "AnlsGrouping_57_Trt01An",
              "groupId": "AnlsGrouping_57_Trt01An_02"
            },
            {
              "groupingId": "AnlsGrouping_58_Param",
              "groupValue": "Temperature (C)"
            }
          ],
          "rawValue": "0.4241771759",
          "formattedValue": "(0.4242)"
        },
        {
          "operationId": "Mth_06_03_SD",
          "resultGroups": [
            {
              "groupingId": "AnlsGrouping_57_Trt01An",
              "groupId": "AnlsGrouping_57_Trt01An_02"
            },
            {
              "groupingId": "AnlsGrouping_58_Param",
              "groupValue": "Weight (kg)"
            }
          ],
          "rawValue": "14.651172444",
          "formattedValue": "(14.6512)"
        },
        {
          "operationId": "Mth_06_03_SD",
          "resultGroups": [
            {
              "groupingId": "AnlsGrouping_57_Trt01An",
              "groupId": "AnlsGrouping_57_Trt01An_03"
            },
            {
              "groupingId": "AnlsGrouping_58_Param",
              "groupValue": "Diastolic Blood Pressure (mmHg)"
            }
          ],
          "rawValue": "10.909748075",
          "formattedValue": "(10.91)"
        },
        {
          "operationId": "Mth_06_03_SD",
          "resultGroups": [
            {
              "groupingId": "AnlsGrouping_57_Trt01An",
              "groupId": "AnlsGrouping_57_Trt01An_03"
            },
            {
              "groupingId": "AnlsGrouping_58_Param",
              "groupValue": "Pulse Rate (beats/min)"
            }
          ],
          "rawValue": "11.89018509",
          "formattedValue": "(11.89)"
        },
        {
          "operationId": "Mth_06_03_SD",
          "resultGroups": [
            {
              "groupingId": "AnlsGrouping_57_Trt01An",
              "groupId": "AnlsGrouping_57_Trt01An_03"
            },
            {
              "groupingId": "AnlsGrouping_58_Param",
              "groupValue": "Systolic Blood Pressure (mmHg)"
            }
          ],
          "rawValue": "17.807101157",
          "formattedValue": "(17.81)"
        },
        {
          "operationId": "Mth_06_03_SD",
          "resultGroups": [
            {
              "groupingId": "AnlsGrouping_57_Trt01An",
              "groupId": "AnlsGrouping_57_Trt01An_03"
            },
            {
              "groupingId": "AnlsGrouping_58_Param",
              "groupValue": "Temperature (C)"
            }
          ],
          "rawValue": "0.3935251084",
          "formattedValue": "(0.3935)"
        },
        {
          "operationId": "Mth_06_03_SD",
          "resultGroups": [
            {
              "groupingId": "AnlsGrouping_57_Trt01An",
              "groupId": "AnlsGrouping_57_Trt01An_03"
            },
            {
              "groupingId": "AnlsGrouping_58_Param",
              "groupValue": "Weight (kg)"
            }
          ],
          "rawValue": "12.770388007",
          "formattedValue": "(12.7704)"
        },
        {
          "operationId": "Mth_06_04_Median",
          "resultGroups": [
            {
              "groupingId": "AnlsGrouping_57_Trt01An",
              "groupId": "AnlsGrouping_57_Trt01An_01"
            },
            {
              "groupingId": "AnlsGrouping_58_Param",
              "groupValue": "Diastolic Blood Pressure (mmHg)"
            }
          ],
          "rawValue": "76",
          "formattedValue": "76.0"
        },
        {
          "operationId": "Mth_06_04_Median",
          "resultGroups": [
            {
              "groupingId": "AnlsGrouping_57_Trt01An",
              "groupId": "AnlsGrouping_57_Trt01An_01"
            },
            {
              "groupingId": "AnlsGrouping_58_Param",
              "groupValue": "Pulse Rate (beats/min)"
            }
          ],
          "rawValue": "70",
          "formattedValue": "70.0"
        },
        {
          "operationId": "Mth_06_04_Median",
          "resultGroups": [
            {
              "groupingId": "AnlsGrouping_57_Trt01An",
              "groupId": "AnlsGrouping_57_Trt01An_01"
            },
            {
              "groupingId": "AnlsGrouping_58_Param",
              "groupValue": "Systolic Blood Pressure (mmHg)"
            }
          ],
          "rawValue": "138",
          "formattedValue": "138.0"
        },
        {
          "operationId": "Mth_06_04_Median",
          "resultGroups": [
            {
              "groupingId": "AnlsGrouping_57_Trt01An",
              "groupId": "AnlsGrouping_57_Trt01An_01"
            },
            {
              "groupingId": "AnlsGrouping_58_Param",
              "groupValue": "Temperature (C)"
            }
          ],
          "rawValue": "36.61",
          "formattedValue": "36.610"
        },
        {
          "operationId": "Mth_06_04_Median",
          "resultGroups": [
            {
              "groupingId": "AnlsGrouping_57_Trt01An",
              "groupId": "AnlsGrouping_57_Trt01An_01"
            },
            {
              "groupingId": "AnlsGrouping_58_Param",
              "groupValue": "Weight (kg)"
            }
          ],
          "rawValue": "64.86",
          "formattedValue": "64.860"
        },
        {
          "operationId": "Mth_06_04_Median",
          "resultGroups": [
            {
              "groupingId": "AnlsGrouping_57_Trt01An",
              "groupId": "AnlsGrouping_57_Trt01An_02"
            },
            {
              "groupingId": "AnlsGrouping_58_Param",
              "groupValue": "Diastolic Blood Pressure (mmHg)"
            }
          ],
          "rawValue": "79.5",
          "formattedValue": "79.5"
        },
        {
          "operationId": "Mth_06_04_Median",
          "resultGroups": [
            {
              "groupingId": "AnlsGrouping_57_Trt01An",
              "groupId": "AnlsGrouping_57_Trt01An_02"
            },
            {
              "groupingId": "AnlsGrouping_58_Param",
              "groupValue": "Pulse Rate (beats/min)"
            }
          ],
          "rawValue": "72",
          "formattedValue": "72.0"
        },
        {
          "operationId": "Mth_06_04_Median",
          "resultGroups": [
            {
              "groupingId": "AnlsGrouping_57_Trt01An",
              "groupId": "AnlsGrouping_57_Trt01An_02"
            },
            {
              "groupingId": "AnlsGrouping_58_Param",
              "groupValue": "Systolic Blood Pressure (mmHg)"
            }
          ],
          "rawValue": "138",
          "formattedValue": "138.0"
        },
        {
          "operationId": "Mth_06_04_Median",
          "resultGroups": [
            {
              "groupingId": "AnlsGrouping_57_Trt01An",
              "groupId": "AnlsGrouping_57_Trt01An_02"
            },
            {
              "groupingId": "AnlsGrouping_58_Param",
              "groupValue": "Temperature (C)"
            }
          ],
          "rawValue": "36.56",
          "formattedValue": "36.560"
        },
        {
          "operationId": "Mth_06_04_Median",
          "resultGroups": [
            {
              "groupingId": "AnlsGrouping_57_Trt01An",
              "groupId": "AnlsGrouping_57_Trt01An_02"
            },
            {
              "groupingId": "AnlsGrouping_58_Param",
              "groupValue": "Weight (kg)"
            }
          ],
          "rawValue": "69.175",
          "formattedValue": "69.175"
        },
        {
          "operationId": "Mth_06_04_Median",
          "resultGroups": [
            {
              "groupingId": "AnlsGrouping_57_Trt01An",
              "groupId": "AnlsGrouping_57_Trt01An_03"
            },
            {
              "groupingId": "AnlsGrouping_58_Param",
              "groupValue": "Diastolic Blood Pressure (mmHg)"
            }
          ],
          "rawValue": "78",
          "formattedValue": "78.0"
        },
        {
          "operationId": "Mth_06_04_Median",
          "resultGroups": [
            {
              "groupingId": "AnlsGrouping_57_Trt01An",
              "groupId": "AnlsGrouping_57_Trt01An_03"
            },
            {
              "groupingId": "AnlsGrouping_58_Param",
              "groupValue": "Pulse Rate (beats/min)"
            }
          ],
          "rawValue": "72",
          "formattedValue": "72.0"
        },
        {
          "operationId": "Mth_06_04_Median",
          "resultGroups": [
            {
              "groupingId": "AnlsGrouping_57_Trt01An",
              "groupId": "AnlsGrouping_57_Trt01An_03"
            },
            {
              "groupingId": "AnlsGrouping_58_Param",
              "groupValue": "Systolic Blood Pressure (mmHg)"
            }
          ],
          "rawValue": "137",
          "formattedValue": "137.0"
        },
        {
          "operationId": "Mth_06_04_Median",
          "resultGroups": [
            {
              "groupingId": "AnlsGrouping_57_Trt01An",
              "groupId": "AnlsGrouping_57_Trt01An_03"
            },
            {
              "groupingId": "AnlsGrouping_58_Param",
              "groupValue": "Temperature (C)"
            }
          ],
          "rawValue": "36.67",
          "formattedValue": "36.670"
        },
        {
          "operationId": "Mth_06_04_Median",
          "resultGroups": [
            {
              "groupingId": "AnlsGrouping_57_Trt01An",
              "groupId": "AnlsGrouping_57_Trt01An_03"
            },
            {
              "groupingId": "AnlsGrouping_58_Param",
              "groupValue": "Weight (kg)"
            }
          ],
          "rawValue": "60.56",
          "formattedValue": "60.560"
        },
        {
          "operationId": "Mth_06_07_Min",
          "resultGroups": [
            {
              "groupingId": "AnlsGrouping_57_Trt01An",
              "groupId": "AnlsGrouping_57_Trt01An_01"
            },
            {
              "groupingId": "AnlsGrouping_58_Param",
              "groupValue": "Diastolic Blood Pressure (mmHg)"
            }
          ],
          "rawValue": "48",
          "formattedValue": "48"
        },
        {
          "operationId": "Mth_06_07_Min",
          "resultGroups": [
            {
              "groupingId": "AnlsGrouping_57_Trt01An",
              "groupId": "AnlsGrouping_57_Trt01An_01"
            },
            {
              "groupingId": "AnlsGrouping_58_Param",
              "groupValue": "Pulse Rate (beats/min)"
            }
          ],
          "rawValue": "50",
          "formattedValue": "50"
        },
        {
          "operationId": "Mth_06_07_Min",
          "resultGroups": [
            {
              "groupingId": "AnlsGrouping_57_Trt01An",
              "groupId": "AnlsGrouping_57_Trt01An_01"
            },
            {
              "groupingId": "AnlsGrouping_58_Param",
              "groupValue": "Systolic Blood Pressure (mmHg)"
            }
          ],
          "rawValue": "100",
          "formattedValue": "100"
        },
        {
          "operationId": "Mth_06_07_Min",
          "resultGroups": [
            {
              "groupingId": "AnlsGrouping_57_Trt01An",
              "groupId": "AnlsGrouping_57_Trt01An_01"
            },
            {
              "groupingId": "AnlsGrouping_58_Param",
              "groupValue": "Temperature (C)"
            }
          ],
          "rawValue": "35.44",
          "formattedValue": "35.44"
        },
        {
          "operationId": "Mth_06_07_Min",
          "resultGroups": [
            {
              "groupingId": "AnlsGrouping_57_Trt01An",
              "groupId": "AnlsGrouping_57_Trt01An_01"
            },
            {
              "groupingId": "AnlsGrouping_58_Param",
              "groupValue": "Weight (kg)"
            }
          ],
          "rawValue": "45.36",
          "formattedValue": "45.36"
        },
        {
          "operationId": "Mth_06_07_Min",
          "resultGroups": [
            {
              "groupingId": "AnlsGrouping_57_Trt01An",
              "groupId": "AnlsGrouping_57_Trt01An_02"
            },
            {
              "groupingId": "AnlsGrouping_58_Param",
              "groupValue": "Diastolic Blood Pressure (mmHg)"
            }
          ],
          "rawValue": "51",
          "formattedValue": "51"
        },
        {
          "operationId": "Mth_06_07_Min",
          "resultGroups": [
            {
              "groupingId": "AnlsGrouping_57_Trt01An",
              "groupId": "AnlsGrouping_57_Trt01An_02"
            },
            {
              "groupingId": "AnlsGrouping_58_Param",
              "groupValue": "Pulse Rate (beats/min)"
            }
          ],
          "rawValue": "52",
          "formattedValue": "52"
        },
        {
          "operationId": "Mth_06_07_Min",
          "resultGroups": [
            {
              "groupingId": "AnlsGrouping_57_Trt01An",
              "groupId": "AnlsGrouping_57_Trt01An_02"
            },
            {
              "groupingId": "AnlsGrouping_58_Param",
              "groupValue": "Systolic Blood Pressure (mmHg)"
            }
          ],
          "rawValue": "100",
          "formattedValue": "100"
        },
        {
          "operationId": "Mth_06_07_Min",
          "resultGroups": [
            {
              "groupingId": "AnlsGrouping_57_Trt01An",
              "groupId": "AnlsGrouping_57_Trt01An_02"
            },
            {
              "groupingId": "AnlsGrouping_58_Param",
              "groupValue": "Temperature (C)"
            }
          ],
          "rawValue": "35.61",
          "formattedValue": "35.61"
        },
        {
          "operationId": "Mth_06_07_Min",
          "resultGroups": [
            {
              "groupingId": "AnlsGrouping_57_Trt01An",
              "groupId": "AnlsGrouping_57_Trt01An_02"
            },
            {
              "groupingId": "AnlsGrouping_58_Param",
              "groupValue": "Weight (kg)"
            }
          ],
          "rawValue": "41.73",
          "formattedValue": "41.73"
        },
        {
          "operationId": "Mth_06_07_Min",
          "resultGroups": [
            {
              "groupingId": "AnlsGrouping_57_Trt01An",
              "groupId": "AnlsGrouping_57_Trt01An_03"
            },
            {
              "groupingId": "AnlsGrouping_58_Param",
              "groupValue": "Diastolic Blood Pressure (mmHg)"
            }
          ],
          "rawValue": "40",
          "formattedValue": "40"
        },
        {
          "operationId": "Mth_06_07_Min",
          "resultGroups": [
            {
              "groupingId": "AnlsGrouping_57_Trt01An",
              "groupId": "AnlsGrouping_57_Trt01An_03"
            },
            {
              "groupingId": "AnlsGrouping_58_Param",
              "groupValue": "Pulse Rate (beats/min)"
            }
          ],
          "rawValue": "51",
          "formattedValue": "51"
        },
        {
          "operationId": "Mth_06_07_Min",
          "resultGroups": [
            {
              "groupingId": "AnlsGrouping_57_Trt01An",
              "groupId": "AnlsGrouping_57_Trt01An_03"
            },
            {
              "groupingId": "AnlsGrouping_58_Param",
              "groupValue": "Systolic Blood Pressure (mmHg)"
            }
          ],
          "rawValue": "80",
          "formattedValue": "80"
        },
        {
          "operationId": "Mth_06_07_Min",
          "resultGroups": [
            {
              "groupingId": "AnlsGrouping_57_Trt01An",
              "groupId": "AnlsGrouping_57_Trt01An_03"
            },
            {
              "groupingId": "AnlsGrouping_58_Param",
              "groupValue": "Temperature (C)"
            }
          ],
          "rawValue": "35.33",
          "formattedValue": "35.33"
        },
        {
          "operationId": "Mth_06_07_Min",
          "resultGroups": [
            {
              "groupingId": "AnlsGrouping_57_Trt01An",
              "groupId": "AnlsGrouping_57_Trt01An_03"
            },
            {
              "groupingId": "AnlsGrouping_58_Param",
              "groupValue": "Weight (kg)"
            }
          ],
          "rawValue": "34.02",
          "formattedValue": "34.02"
        },
        {
          "operationId": "Mth_06_08_Max",
          "resultGroups": [
            {
              "groupingId": "AnlsGrouping_57_Trt01An",
              "groupId": "AnlsGrouping_57_Trt01An_01"
            },
            {
              "groupingId": "AnlsGrouping_58_Param",
              "groupValue": "Diastolic Blood Pressure (mmHg)"
            }
          ],
          "rawValue": "108",
          "formattedValue": "108"
        },
        {
          "operationId": "Mth_06_08_Max",
          "resultGroups": [
            {
              "groupingId": "AnlsGrouping_57_Trt01An",
              "groupId": "AnlsGrouping_57_Trt01An_01"
            },
            {
              "groupingId": "AnlsGrouping_58_Param",
              "groupValue": "Pulse Rate (beats/min)"
            }
          ],
          "rawValue": "104",
          "formattedValue": "104"
        },
        {
          "operationId": "Mth_06_08_Max",
          "resultGroups": [
            {
              "groupingId": "AnlsGrouping_57_Trt01An",
              "groupId": "AnlsGrouping_57_Trt01An_01"
            },
            {
              "groupingId": "AnlsGrouping_58_Param",
              "groupValue": "Systolic Blood Pressure (mmHg)"
            }
          ],
          "rawValue": "186",
          "formattedValue": "186"
        },
        {
          "operationId": "Mth_06_08_Max",
          "resultGroups": [
            {
              "groupingId": "AnlsGrouping_57_Trt01An",
              "groupId": "AnlsGrouping_57_Trt01An_01"
            },
            {
              "groupingId": "AnlsGrouping_58_Param",
              "groupValue": "Temperature (C)"
            }
          ],
          "rawValue": "37.33",
          "formattedValue": "37.33"
        },
        {
          "operationId": "Mth_06_08_Max",
          "resultGroups": [
            {
              "groupingId": "AnlsGrouping_57_Trt01An",
              "groupId": "AnlsGrouping_57_Trt01An_01"
            },
            {
              "groupingId": "AnlsGrouping_58_Param",
              "groupValue": "Weight (kg)"
            }
          ],
          "rawValue": "106.14",
          "formattedValue": "106.14"
        },
        {
          "operationId": "Mth_06_08_Max",
          "resultGroups": [
            {
              "groupingId": "AnlsGrouping_57_Trt01An",
              "groupId": "AnlsGrouping_57_Trt01An_02"
            },
            {
              "groupingId": "AnlsGrouping_58_Param",
              "groupValue": "Diastolic Blood Pressure (mmHg)"
            }
          ],
          "rawValue": "108",
          "formattedValue": "108"
        },
        {
          "operationId": "Mth_06_08_Max",
          "resultGroups": [
            {
              "groupingId": "AnlsGrouping_57_Trt01An",
              "groupId": "AnlsGrouping_57_Trt01An_02"
            },
            {
              "groupingId": "AnlsGrouping_58_Param",
              "groupValue": "Pulse Rate (beats/min)"
            }
          ],
          "rawValue": "104",
          "formattedValue": "104"
        },
        {
          "operationId": "Mth_06_08_Max",
          "resultGroups": [
            {
              "groupingId": "AnlsGrouping_57_Trt01An",
              "groupId": "AnlsGrouping_57_Trt01An_02"
            },
            {
              "groupingId": "AnlsGrouping_58_Param",
              "groupValue": "Systolic Blood Pressure (mmHg)"
            }
          ],
          "rawValue": "194",
          "formattedValue": "194"
        },
        {
          "operationId": "Mth_06_08_Max",
          "resultGroups": [
            {
              "groupingId": "AnlsGrouping_57_Trt01An",
              "groupId": "AnlsGrouping_57_Trt01An_02"
            },
            {
              "groupingId": "AnlsGrouping_58_Param",
              "groupValue": "Temperature (C)"
            }
          ],
          "rawValue": "37.44",
          "formattedValue": "37.44"
        },
        {
          "operationId": "Mth_06_08_Max",
          "resultGroups": [
            {
              "groupingId": "AnlsGrouping_57_Trt01An",
              "groupId": "AnlsGrouping_57_Trt01An_02"
            },
            {
              "groupingId": "AnlsGrouping_58_Param",
              "groupValue": "Weight (kg)"
            }
          ],
          "rawValue": "107.96",
          "formattedValue": "107.96"
        },
        {
          "operationId": "Mth_06_08_Max",
          "resultGroups": [
            {
              "groupingId": "AnlsGrouping_57_Trt01An",
              "groupId": "AnlsGrouping_57_Trt01An_03"
            },
            {
              "groupingId": "AnlsGrouping_58_Param",
              "groupValue": "Diastolic Blood Pressure (mmHg)"
            }
          ],
          "rawValue": "110",
          "formattedValue": "110"
        },
        {
          "operationId": "Mth_06_08_Max",
          "resultGroups": [
            {
              "groupingId": "AnlsGrouping_57_Trt01An",
              "groupId": "AnlsGrouping_57_Trt01An_03"
            },
            {
              "groupingId": "AnlsGrouping_58_Param",
              "groupValue": "Pulse Rate (beats/min)"
            }
          ],
          "rawValue": "134",
          "formattedValue": "134"
        },
        {
          "operationId": "Mth_06_08_Max",
          "resultGroups": [
            {
              "groupingId": "AnlsGrouping_57_Trt01An",
              "groupId": "AnlsGrouping_57_Trt01An_03"
            },
            {
              "groupingId": "AnlsGrouping_58_Param",
              "groupValue": "Systolic Blood Pressure (mmHg)"
            }
          ],
          "rawValue": "184",
          "formattedValue": "184"
        },
        {
          "operationId": "Mth_06_08_Max",
          "resultGroups": [
            {
              "groupingId": "AnlsGrouping_57_Trt01An",
              "groupId": "AnlsGrouping_57_Trt01An_03"
            },
            {
              "groupingId": "AnlsGrouping_58_Param",
              "groupValue": "Temperature (C)"
            }
          ],
          "rawValue": "37.17",
          "formattedValue": "37.17"
        },
        {
          "operationId": "Mth_06_08_Max",
          "resultGroups": [
            {
              "groupingId": "AnlsGrouping_57_Trt01An",
              "groupId": "AnlsGrouping_57_Trt01An_03"
            },
            {
              "groupingId": "AnlsGrouping_58_Param",
              "groupValue": "Weight (kg)"
            }
          ],
          "rawValue": "86.18",
          "formattedValue": "86.18"
        }
      ]
    },
    {
      "name": "Summary of Analysis Value by Treatment, Parameter (Unit) and Visit",
      "id": "An_103",
      "reason": {
        "controlledTerm": "SPECIFIED IN SAP"
      },
      "purpose": {
        "controlledTerm": "PRIMARY OUTCOME MEASURE"
      },
      "methodId": "Mth_06",
      "version": 1,
      "categoryIds": [
        "ANSET_01",
        "ANSET_01_ANINT_06"
      ],
      "dataset": "ADVS",
      "variable": "AVAL",
      "analysisSetId": "AnalysisSet_01",
      "dataSubsetId": "Dss_36",
      "orderedGroupings": [
        {
          "order": 1,
          "groupingId": "AnlsGrouping_57_Trt01An",
          "resultsByGroup": true
        },
        {
          "order": 2,
          "groupingId": "AnlsGrouping_58_Param",
          "resultsByGroup": true
        },
        {
          "order": 3,
          "groupingId": "AnlsGrouping_60_Aval",
          "resultsByGroup": true
        }
      ],
      "results": [
        {
          "operationId": "Mth_06_01_n",
          "resultGroups": [
            {
              "groupingId": "AnlsGrouping_57_Trt01An",
              "groupId": "AnlsGrouping_57_Trt01An_01"
            },
            {
              "groupingId": "AnlsGrouping_58_Param",
              "groupValue": "Diastolic Blood Pressure (mmHg)"
            },
            {
              "groupingId": "AnlsGrouping_60_Aval",
              "groupValue": "End of Treatment"
            }
          ],
          "rawValue": "216",
          "formattedValue": "216"
        },
        {
          "operationId": "Mth_06_01_n",
          "resultGroups": [
            {
              "groupingId": "AnlsGrouping_57_Trt01An",
              "groupId": "AnlsGrouping_57_Trt01An_01"
            },
            {
              "groupingId": "AnlsGrouping_58_Param",
              "groupValue": "Diastolic Blood Pressure (mmHg)"
            },
            {
              "groupingId": "AnlsGrouping_60_Aval",
              "groupValue": "Week 12"
            }
          ],
          "rawValue": "156",
          "formattedValue": "156"
        },
        {
          "operationId": "Mth_06_01_n",
          "resultGroups": [
            {
              "groupingId": "AnlsGrouping_57_Trt01An",
              "groupId": "AnlsGrouping_57_Trt01An_01"
            },
            {
              "groupingId": "AnlsGrouping_58_Param",
              "groupValue": "Diastolic Blood Pressure (mmHg)"
            },
            {
              "groupingId": "AnlsGrouping_60_Aval",
              "groupValue": "Week 16"
            }
          ],
          "rawValue": "126",
          "formattedValue": "126"
        },
        {
          "operationId": "Mth_06_01_n",
          "resultGroups": [
            {
              "groupingId": "AnlsGrouping_57_Trt01An",
              "groupId": "AnlsGrouping_57_Trt01An_01"
            },
            {
              "groupingId": "AnlsGrouping_58_Param",
              "groupValue": "Diastolic Blood Pressure (mmHg)"
            },
            {
              "groupingId": "AnlsGrouping_60_Aval",
              "groupValue": "Week 2"
            }
          ],
          "rawValue": "251",
          "formattedValue": "251"
        },
        {
          "operationId": "Mth_06_01_n",
          "resultGroups": [
            {
              "groupingId": "AnlsGrouping_57_Trt01An",
              "groupId": "AnlsGrouping_57_Trt01An_01"
            },
            {
              "groupingId": "AnlsGrouping_58_Param",
              "groupValue": "Diastolic Blood Pressure (mmHg)"
            },
            {
              "groupingId": "AnlsGrouping_60_Aval",
              "groupValue": "Week 20"
            }
          ],
          "rawValue": "90",
          "formattedValue": "90"
        },
        {
          "operationId": "Mth_06_01_n",
          "resultGroups": [
            {
              "groupingId": "AnlsGrouping_57_Trt01An",
              "groupId": "AnlsGrouping_57_Trt01An_01"
            },
            {
              "groupingId": "AnlsGrouping_58_Param",
              "groupValue": "Diastolic Blood Pressure (mmHg)"
            },
            {
              "groupingId": "AnlsGrouping_60_Aval",
              "groupValue": "Week 24"
            }
          ],
          "rawValue": "81",
          "formattedValue": "81"
        },
        {
          "operationId": "Mth_06_01_n",
          "resultGroups": [
            {
              "groupingId": "AnlsGrouping_57_Trt01An",
              "groupId": "AnlsGrouping_57_Trt01An_01"
            },
            {
              "groupingId": "AnlsGrouping_58_Param",
              "groupValue": "Diastolic Blood Pressure (mmHg)"
            },
            {
              "groupingId": "AnlsGrouping_60_Aval",
              "groupValue": "Week 26"
            }
          ],
          "rawValue": "75",
          "formattedValue": "75"
        },
        {
          "operationId": "Mth_06_01_n",
          "resultGroups": [
            {
              "groupingId": "AnlsGrouping_57_Trt01An",
              "groupId": "AnlsGrouping_57_Trt01An_01"
            },
            {
              "groupingId": "AnlsGrouping_58_Param",
              "groupValue": "Diastolic Blood Pressure (mmHg)"
            },
            {
              "groupingId": "AnlsGrouping_60_Aval",
              "groupValue": "Week 4"
            }
          ],
          "rawValue": "216",
          "formattedValue": "216"
        },
        {
          "operationId": "Mth_06_01_n",
          "resultGroups": [
            {
              "groupingId": "AnlsGrouping_57_Trt01An",
              "groupId": "AnlsGrouping_57_Trt01An_01"
            },
            {
              "groupingId": "AnlsGrouping_58_Param",
              "groupValue": "Diastolic Blood Pressure (mmHg)"
            },
            {
              "groupingId": "AnlsGrouping_60_Aval",
              "groupValue": "Week 6"
            }
          ],
          "rawValue": "195",
          "formattedValue": "195"
        },
        {
          "operationId": "Mth_06_01_n",
          "resultGroups": [
            {
              "groupingId": "AnlsGrouping_57_Trt01An",
              "groupId": "AnlsGrouping_57_Trt01An_01"
            },
            {
              "groupingId": "AnlsGrouping_58_Param",
              "groupValue": "Diastolic Blood Pressure (mmHg)"
            },
            {
              "groupingId": "AnlsGrouping_60_Aval",
              "groupValue": "Week 8"
            }
          ],
          "rawValue": "180",
          "formattedValue": "180"
        },
        {
          "operationId": "Mth_06_01_n",
          "resultGroups": [
            {
              "groupingId": "AnlsGrouping_57_Trt01An",
              "groupId": "AnlsGrouping_57_Trt01An_01"
            },
            {
              "groupingId": "AnlsGrouping_58_Param",
              "groupValue": "Pulse Rate (beats/min)"
            },
            {
              "groupingId": "AnlsGrouping_60_Aval",
              "groupValue": "End of Treatment"
            }
          ],
          "rawValue": "216",
          "formattedValue": "216"
        },
        {
          "operationId": "Mth_06_01_n",
          "resultGroups": [
            {
              "groupingId": "AnlsGrouping_57_Trt01An",
              "groupId": "AnlsGrouping_57_Trt01An_01"
            },
            {
              "groupingId": "AnlsGrouping_58_Param",
              "groupValue": "Pulse Rate (beats/min)"
            },
            {
              "groupingId": "AnlsGrouping_60_Aval",
              "groupValue": "Week 12"
            }
          ],
          "rawValue": "156",
          "formattedValue": "156"
        },
        {
          "operationId": "Mth_06_01_n",
          "resultGroups": [
            {
              "groupingId": "AnlsGrouping_57_Trt01An",
              "groupId": "AnlsGrouping_57_Trt01An_01"
            },
            {
              "groupingId": "AnlsGrouping_58_Param",
              "groupValue": "Pulse Rate (beats/min)"
            },
            {
              "groupingId": "AnlsGrouping_60_Aval",
              "groupValue": "Week 16"
            }
          ],
          "rawValue": "126",
          "formattedValue": "126"
        },
        {
          "operationId": "Mth_06_01_n",
          "resultGroups": [
            {
              "groupingId": "AnlsGrouping_57_Trt01An",
              "groupId": "AnlsGrouping_57_Trt01An_01"
            },
            {
              "groupingId": "AnlsGrouping_58_Param",
              "groupValue": "Pulse Rate (beats/min)"
            },
            {
              "groupingId": "AnlsGrouping_60_Aval",
              "groupValue": "Week 2"
            }
          ],
          "rawValue": "251",
          "formattedValue": "251"
        },
        {
          "operationId": "Mth_06_01_n",
          "resultGroups": [
            {
              "groupingId": "AnlsGrouping_57_Trt01An",
              "groupId": "AnlsGrouping_57_Trt01An_01"
            },
            {
              "groupingId": "AnlsGrouping_58_Param",
              "groupValue": "Pulse Rate (beats/min)"
            },
            {
              "groupingId": "AnlsGrouping_60_Aval",
              "groupValue": "Week 20"
            }
          ],
          "rawValue": "90",
          "formattedValue": "90"
        },
        {
          "operationId": "Mth_06_01_n",
          "resultGroups": [
            {
              "groupingId": "AnlsGrouping_57_Trt01An",
              "groupId": "AnlsGrouping_57_Trt01An_01"
            },
            {
              "groupingId": "AnlsGrouping_58_Param",
              "groupValue": "Pulse Rate (beats/min)"
            },
            {
              "groupingId": "AnlsGrouping_60_Aval",
              "groupValue": "Week 24"
            }
          ],
          "rawValue": "81",
          "formattedValue": "81"
        },
        {
          "operationId": "Mth_06_01_n",
          "resultGroups": [
            {
              "groupingId": "AnlsGrouping_57_Trt01An",
              "groupId": "AnlsGrouping_57_Trt01An_01"
            },
            {
              "groupingId": "AnlsGrouping_58_Param",
              "groupValue": "Pulse Rate (beats/min)"
            },
            {
              "groupingId": "AnlsGrouping_60_Aval",
              "groupValue": "Week 26"
            }
          ],
          "rawValue": "75",
          "formattedValue": "75"
        },
        {
          "operationId": "Mth_06_01_n",
          "resultGroups": [
            {
              "groupingId": "AnlsGrouping_57_Trt01An",
              "groupId": "AnlsGrouping_57_Trt01An_01"
            },
            {
              "groupingId": "AnlsGrouping_58_Param",
              "groupValue": "Pulse Rate (beats/min)"
            },
            {
              "groupingId": "AnlsGrouping_60_Aval",
              "groupValue": "Week 4"
            }
          ],
          "rawValue": "216",
          "formattedValue": "216"
        },
        {
          "operationId": "Mth_06_01_n",
          "resultGroups": [
            {
              "groupingId": "AnlsGrouping_57_Trt01An",
              "groupId": "AnlsGrouping_57_Trt01An_01"
            },
            {
              "groupingId": "AnlsGrouping_58_Param",
              "groupValue": "Pulse Rate (beats/min)"
            },
            {
              "groupingId": "AnlsGrouping_60_Aval",
              "groupValue": "Week 6"
            }
          ],
          "rawValue": "195",
          "formattedValue": "195"
        },
        {
          "operationId": "Mth_06_01_n",
          "resultGroups": [
            {
              "groupingId": "AnlsGrouping_57_Trt01An",
              "groupId": "AnlsGrouping_57_Trt01An_01"
            },
            {
              "groupingId": "AnlsGrouping_58_Param",
              "groupValue": "Pulse Rate (beats/min)"
            },
            {
              "groupingId": "AnlsGrouping_60_Aval",
              "groupValue": "Week 8"
            }
          ],
          "rawValue": "180",
          "formattedValue": "180"
        },
        {
          "operationId": "Mth_06_01_n",
          "resultGroups": [
            {
              "groupingId": "AnlsGrouping_57_Trt01An",
              "groupId": "AnlsGrouping_57_Trt01An_01"
            },
            {
              "groupingId": "AnlsGrouping_58_Param",
              "groupValue": "Systolic Blood Pressure (mmHg)"
            },
            {
              "groupingId": "AnlsGrouping_60_Aval",
              "groupValue": "End of Treatment"
            }
          ],
          "rawValue": "216",
          "formattedValue": "216"
        },
        {
          "operationId": "Mth_06_01_n",
          "resultGroups": [
            {
              "groupingId": "AnlsGrouping_57_Trt01An",
              "groupId": "AnlsGrouping_57_Trt01An_01"
            },
            {
              "groupingId": "AnlsGrouping_58_Param",
              "groupValue": "Systolic Blood Pressure (mmHg)"
            },
            {
              "groupingId": "AnlsGrouping_60_Aval",
              "groupValue": "Week 12"
            }
          ],
          "rawValue": "156",
          "formattedValue": "156"
        },
        {
          "operationId": "Mth_06_01_n",
          "resultGroups": [
            {
              "groupingId": "AnlsGrouping_57_Trt01An",
              "groupId": "AnlsGrouping_57_Trt01An_01"
            },
            {
              "groupingId": "AnlsGrouping_58_Param",
              "groupValue": "Systolic Blood Pressure (mmHg)"
            },
            {
              "groupingId": "AnlsGrouping_60_Aval",
              "groupValue": "Week 16"
            }
          ],
          "rawValue": "126",
          "formattedValue": "126"
        },
        {
          "operationId": "Mth_06_01_n",
          "resultGroups": [
            {
              "groupingId": "AnlsGrouping_57_Trt01An",
              "groupId": "AnlsGrouping_57_Trt01An_01"
            },
            {
              "groupingId": "AnlsGrouping_58_Param",
              "groupValue": "Systolic Blood Pressure (mmHg)"
            },
            {
              "groupingId": "AnlsGrouping_60_Aval",
              "groupValue": "Week 2"
            }
          ],
          "rawValue": "251",
          "formattedValue": "251"
        },
        {
          "operationId": "Mth_06_01_n",
          "resultGroups": [
            {
              "groupingId": "AnlsGrouping_57_Trt01An",
              "groupId": "AnlsGrouping_57_Trt01An_01"
            },
            {
              "groupingId": "AnlsGrouping_58_Param",
              "groupValue": "Systolic Blood Pressure (mmHg)"
            },
            {
              "groupingId": "AnlsGrouping_60_Aval",
              "groupValue": "Week 20"
            }
          ],
          "rawValue": "90",
          "formattedValue": "90"
        },
        {
          "operationId": "Mth_06_01_n",
          "resultGroups": [
            {
              "groupingId": "AnlsGrouping_57_Trt01An",
              "groupId": "AnlsGrouping_57_Trt01An_01"
            },
            {
              "groupingId": "AnlsGrouping_58_Param",
              "groupValue": "Systolic Blood Pressure (mmHg)"
            },
            {
              "groupingId": "AnlsGrouping_60_Aval",
              "groupValue": "Week 24"
            }
          ],
          "rawValue": "81",
          "formattedValue": "81"
        },
        {
          "operationId": "Mth_06_01_n",
          "resultGroups": [
            {
              "groupingId": "AnlsGrouping_57_Trt01An",
              "groupId": "AnlsGrouping_57_Trt01An_01"
            },
            {
              "groupingId": "AnlsGrouping_58_Param",
              "groupValue": "Systolic Blood Pressure (mmHg)"
            },
            {
              "groupingId": "AnlsGrouping_60_Aval",
              "groupValue": "Week 26"
            }
          ],
          "rawValue": "75",
          "formattedValue": "75"
        },
        {
          "operationId": "Mth_06_01_n",
          "resultGroups": [
            {
              "groupingId": "AnlsGrouping_57_Trt01An",
              "groupId": "AnlsGrouping_57_Trt01An_01"
            },
            {
              "groupingId": "AnlsGrouping_58_Param",
              "groupValue": "Systolic Blood Pressure (mmHg)"
            },
            {
              "groupingId": "AnlsGrouping_60_Aval",
              "groupValue": "Week 4"
            }
          ],
          "rawValue": "216",
          "formattedValue": "216"
        },
        {
          "operationId": "Mth_06_01_n",
          "resultGroups": [
            {
              "groupingId": "AnlsGrouping_57_Trt01An",
              "groupId": "AnlsGrouping_57_Trt01An_01"
            },
            {
              "groupingId": "AnlsGrouping_58_Param",
              "groupValue": "Systolic Blood Pressure (mmHg)"
            },
            {
              "groupingId": "AnlsGrouping_60_Aval",
              "groupValue": "Week 6"
            }
          ],
          "rawValue": "195",
          "formattedValue": "195"
        },
        {
          "operationId": "Mth_06_01_n",
          "resultGroups": [
            {
              "groupingId": "AnlsGrouping_57_Trt01An",
              "groupId": "AnlsGrouping_57_Trt01An_01"
            },
            {
              "groupingId": "AnlsGrouping_58_Param",
              "groupValue": "Systolic Blood Pressure (mmHg)"
            },
            {
              "groupingId": "AnlsGrouping_60_Aval",
              "groupValue": "Week 8"
            }
          ],
          "rawValue": "180",
          "formattedValue": "180"
        },
        {
          "operationId": "Mth_06_01_n",
          "resultGroups": [
            {
              "groupingId": "AnlsGrouping_57_Trt01An",
              "groupId": "AnlsGrouping_57_Trt01An_01"
            },
            {
              "groupingId": "AnlsGrouping_58_Param",
              "groupValue": "Temperature (C)"
            },
            {
              "groupingId": "AnlsGrouping_60_Aval",
              "groupValue": "End of Treatment"
            }
          ],
          "rawValue": "72",
          "formattedValue": "72"
        },
        {
          "operationId": "Mth_06_01_n",
          "resultGroups": [
            {
              "groupingId": "AnlsGrouping_57_Trt01An",
              "groupId": "AnlsGrouping_57_Trt01An_01"
            },
            {
              "groupingId": "AnlsGrouping_58_Param",
              "groupValue": "Temperature (C)"
            },
            {
              "groupingId": "AnlsGrouping_60_Aval",
              "groupValue": "Week 12"
            }
          ],
          "rawValue": "52",
          "formattedValue": "52"
        },
        {
          "operationId": "Mth_06_01_n",
          "resultGroups": [
            {
              "groupingId": "AnlsGrouping_57_Trt01An",
              "groupId": "AnlsGrouping_57_Trt01An_01"
            },
            {
              "groupingId": "AnlsGrouping_58_Param",
              "groupValue": "Temperature (C)"
            },
            {
              "groupingId": "AnlsGrouping_60_Aval",
              "groupValue": "Week 16"
            }
          ],
          "rawValue": "41",
          "formattedValue": "41"
        },
        {
          "operationId": "Mth_06_01_n",
          "resultGroups": [
            {
              "groupingId": "AnlsGrouping_57_Trt01An",
              "groupId": "AnlsGrouping_57_Trt01An_01"
            },
            {
              "groupingId": "AnlsGrouping_58_Param",
              "groupValue": "Temperature (C)"
            },
            {
              "groupingId": "AnlsGrouping_60_Aval",
              "groupValue": "Week 2"
            }
          ],
          "rawValue": "84",
          "formattedValue": "84"
        },
        {
          "operationId": "Mth_06_01_n",
          "resultGroups": [
            {
              "groupingId": "AnlsGrouping_57_Trt01An",
              "groupId": "AnlsGrouping_57_Trt01An_01"
            },
            {
              "groupingId": "AnlsGrouping_58_Param",
              "groupValue": "Temperature (C)"
            },
            {
              "groupingId": "AnlsGrouping_60_Aval",
              "groupValue": "Week 20"
            }
          ],
          "rawValue": "30",
          "formattedValue": "30"
        },
        {
          "operationId": "Mth_06_01_n",
          "resultGroups": [
            {
              "groupingId": "AnlsGrouping_57_Trt01An",
              "groupId": "AnlsGrouping_57_Trt01An_01"
            },
            {
              "groupingId": "AnlsGrouping_58_Param",
              "groupValue": "Temperature (C)"
            },
            {
              "groupingId": "AnlsGrouping_60_Aval",
              "groupValue": "Week 24"
            }
          ],
          "rawValue": "26",
          "formattedValue": "26"
        },
        {
          "operationId": "Mth_06_01_n",
          "resultGroups": [
            {
              "groupingId": "AnlsGrouping_57_Trt01An",
              "groupId": "AnlsGrouping_57_Trt01An_01"
            },
            {
              "groupingId": "AnlsGrouping_58_Param",
              "groupValue": "Temperature (C)"
            },
            {
              "groupingId": "AnlsGrouping_60_Aval",
              "groupValue": "Week 26"
            }
          ],
          "rawValue": "24",
          "formattedValue": "24"
        },
        {
          "operationId": "Mth_06_01_n",
          "resultGroups": [
            {
              "groupingId": "AnlsGrouping_57_Trt01An",
              "groupId": "AnlsGrouping_57_Trt01An_01"
            },
            {
              "groupingId": "AnlsGrouping_58_Param",
              "groupValue": "Temperature (C)"
            },
            {
              "groupingId": "AnlsGrouping_60_Aval",
              "groupValue": "Week 4"
            }
          ],
          "rawValue": "72",
          "formattedValue": "72"
        },
        {
          "operationId": "Mth_06_01_n",
          "resultGroups": [
            {
              "groupingId": "AnlsGrouping_57_Trt01An",
              "groupId": "AnlsGrouping_57_Trt01An_01"
            },
            {
              "groupingId": "AnlsGrouping_58_Param",
              "groupValue": "Temperature (C)"
            },
            {
              "groupingId": "AnlsGrouping_60_Aval",
              "groupValue": "Week 6"
            }
          ],
          "rawValue": "65",
          "formattedValue": "65"
        },
        {
          "operationId": "Mth_06_01_n",
          "resultGroups": [
            {
              "groupingId": "AnlsGrouping_57_Trt01An",
              "groupId": "AnlsGrouping_57_Trt01An_01"
            },
            {
              "groupingId": "AnlsGrouping_58_Param",
              "groupValue": "Temperature (C)"
            },
            {
              "groupingId": "AnlsGrouping_60_Aval",
              "groupValue": "Week 8"
            }
          ],
          "rawValue": "59",
          "formattedValue": "59"
        },
        {
          "operationId": "Mth_06_01_n",
          "resultGroups": [
            {
              "groupingId": "AnlsGrouping_57_Trt01An",
              "groupId": "AnlsGrouping_57_Trt01An_01"
            },
            {
              "groupingId": "AnlsGrouping_58_Param",
              "groupValue": "Weight (kg)"
            },
            {
              "groupingId": "AnlsGrouping_60_Aval",
              "groupValue": "End of Treatment"
            }
          ],
          "rawValue": "72",
          "formattedValue": "72"
        },
        {
          "operationId": "Mth_06_01_n",
          "resultGroups": [
            {
              "groupingId": "AnlsGrouping_57_Trt01An",
              "groupId": "AnlsGrouping_57_Trt01An_01"
            },
            {
              "groupingId": "AnlsGrouping_58_Param",
              "groupValue": "Weight (kg)"
            },
            {
              "groupingId": "AnlsGrouping_60_Aval",
              "groupValue": "Week 12"
            }
          ],
          "rawValue": "52",
          "formattedValue": "52"
        },
        {
          "operationId": "Mth_06_01_n",
          "resultGroups": [
            {
              "groupingId": "AnlsGrouping_57_Trt01An",
              "groupId": "AnlsGrouping_57_Trt01An_01"
            },
            {
              "groupingId": "AnlsGrouping_58_Param",
              "groupValue": "Weight (kg)"
            },
            {
              "groupingId": "AnlsGrouping_60_Aval",
              "groupValue": "Week 16"
            }
          ],
          "rawValue": "42",
          "formattedValue": "42"
        },
        {
          "operationId": "Mth_06_01_n",
          "resultGroups": [
            {
              "groupingId": "AnlsGrouping_57_Trt01An",
              "groupId": "AnlsGrouping_57_Trt01An_01"
            },
            {
              "groupingId": "AnlsGrouping_58_Param",
              "groupValue": "Weight (kg)"
            },
            {
              "groupingId": "AnlsGrouping_60_Aval",
              "groupValue": "Week 2"
            }
          ],
          "rawValue": "84",
          "formattedValue": "84"
        },
        {
          "operationId": "Mth_06_01_n",
          "resultGroups": [
            {
              "groupingId": "AnlsGrouping_57_Trt01An",
              "groupId": "AnlsGrouping_57_Trt01An_01"
            },
            {
              "groupingId": "AnlsGrouping_58_Param",
              "groupValue": "Weight (kg)"
            },
            {
              "groupingId": "AnlsGrouping_60_Aval",
              "groupValue": "Week 20"
            }
          ],
          "rawValue": "31",
          "formattedValue": "31"
        },
        {
          "operationId": "Mth_06_01_n",
          "resultGroups": [
            {
              "groupingId": "AnlsGrouping_57_Trt01An",
              "groupId": "AnlsGrouping_57_Trt01An_01"
            },
            {
              "groupingId": "AnlsGrouping_58_Param",
              "groupValue": "Weight (kg)"
            },
            {
              "groupingId": "AnlsGrouping_60_Aval",
              "groupValue": "Week 24"
            }
          ],
          "rawValue": "27",
          "formattedValue": "27"
        },
        {
          "operationId": "Mth_06_01_n",
          "resultGroups": [
            {
              "groupingId": "AnlsGrouping_57_Trt01An",
              "groupId": "AnlsGrouping_57_Trt01An_01"
            },
            {
              "groupingId": "AnlsGrouping_58_Param",
              "groupValue": "Weight (kg)"
            },
            {
              "groupingId": "AnlsGrouping_60_Aval",
              "groupValue": "Week 26"
            }
          ],
          "rawValue": "25",
          "formattedValue": "25"
        },
        {
          "operationId": "Mth_06_01_n",
          "resultGroups": [
            {
              "groupingId": "AnlsGrouping_57_Trt01An",
              "groupId": "AnlsGrouping_57_Trt01An_01"
            },
            {
              "groupingId": "AnlsGrouping_58_Param",
              "groupValue": "Weight (kg)"
            },
            {
              "groupingId": "AnlsGrouping_60_Aval",
              "groupValue": "Week 4"
            }
          ],
          "rawValue": "72",
          "formattedValue": "72"
        },
        {
          "operationId": "Mth_06_01_n",
          "resultGroups": [
            {
              "groupingId": "AnlsGrouping_57_Trt01An",
              "groupId": "AnlsGrouping_57_Trt01An_01"
            },
            {
              "groupingId": "AnlsGrouping_58_Param",
              "groupValue": "Weight (kg)"
            },
            {
              "groupingId": "AnlsGrouping_60_Aval",
              "groupValue": "Week 6"
            }
          ],
          "rawValue": "65",
          "formattedValue": "65"
        },
        {
          "operationId": "Mth_06_01_n",
          "resultGroups": [
            {
              "groupingId": "AnlsGrouping_57_Trt01An",
              "groupId": "AnlsGrouping_57_Trt01An_01"
            },
            {
              "groupingId": "AnlsGrouping_58_Param",
              "groupValue": "Weight (kg)"
            },
            {
              "groupingId": "AnlsGrouping_60_Aval",
              "groupValue": "Week 8"
            }
          ],
          "rawValue": "60",
          "formattedValue": "60"
        },
        {
          "operationId": "Mth_06_01_n",
          "resultGroups": [
            {
              "groupingId": "AnlsGrouping_57_Trt01An",
              "groupId": "AnlsGrouping_57_Trt01An_02"
            },
            {
              "groupingId": "AnlsGrouping_58_Param",
              "groupValue": "Diastolic Blood Pressure (mmHg)"
            },
            {
              "groupingId": "AnlsGrouping_60_Aval",
              "groupValue": "End of Treatment"
            }
          ],
          "rawValue": "219",
          "formattedValue": "219"
        },
        {
          "operationId": "Mth_06_01_n",
          "resultGroups": [
            {
              "groupingId": "AnlsGrouping_57_Trt01An",
              "groupId": "AnlsGrouping_57_Trt01An_02"
            },
            {
              "groupingId": "AnlsGrouping_58_Param",
              "groupValue": "Diastolic Blood Pressure (mmHg)"
            },
            {
              "groupingId": "AnlsGrouping_60_Aval",
              "groupValue": "Week 12"
            }
          ],
          "rawValue": "150",
          "formattedValue": "150"
        },
        {
          "operationId": "Mth_06_01_n",
          "resultGroups": [
            {
              "groupingId": "AnlsGrouping_57_Trt01An",
              "groupId": "AnlsGrouping_57_Trt01An_02"
            },
            {
              "groupingId": "AnlsGrouping_58_Param",
              "groupValue": "Diastolic Blood Pressure (mmHg)"
            },
            {
              "groupingId": "AnlsGrouping_60_Aval",
              "groupValue": "Week 16"
            }
          ],
          "rawValue": "111",
          "formattedValue": "111"
        },
        {
          "operationId": "Mth_06_01_n",
          "resultGroups": [
            {
              "groupingId": "AnlsGrouping_57_Trt01An",
              "groupId": "AnlsGrouping_57_Trt01An_02"
            },
            {
              "groupingId": "AnlsGrouping_58_Param",
              "groupValue": "Diastolic Blood Pressure (mmHg)"
            },
            {
              "groupingId": "AnlsGrouping_60_Aval",
              "groupValue": "Week 2"
            }
          ],
          "rawValue": "243",
          "formattedValue": "243"
        },
        {
          "operationId": "Mth_06_01_n",
          "resultGroups": [
            {
              "groupingId": "AnlsGrouping_57_Trt01An",
              "groupId": "AnlsGrouping_57_Trt01An_02"
            },
            {
              "groupingId": "AnlsGrouping_58_Param",
              "groupValue": "Diastolic Blood Pressure (mmHg)"
            },
            {
              "groupingId": "AnlsGrouping_60_Aval",
              "groupValue": "Week 20"
            }
          ],
          "rawValue": "96",
          "formattedValue": "96"
        },
        {
          "operationId": "Mth_06_01_n",
          "resultGroups": [
            {
              "groupingId": "AnlsGrouping_57_Trt01An",
              "groupId": "AnlsGrouping_57_Trt01An_02"
            },
            {
              "groupingId": "AnlsGrouping_58_Param",
              "groupValue": "Diastolic Blood Pressure (mmHg)"
            },
            {
              "groupingId": "AnlsGrouping_60_Aval",
              "groupValue": "Week 24"
            }
          ],
          "rawValue": "90",
          "formattedValue": "90"
        },
        {
          "operationId": "Mth_06_01_n",
          "resultGroups": [
            {
              "groupingId": "AnlsGrouping_57_Trt01An",
              "groupId": "AnlsGrouping_57_Trt01An_02"
            },
            {
              "groupingId": "AnlsGrouping_58_Param",
              "groupValue": "Diastolic Blood Pressure (mmHg)"
            },
            {
              "groupingId": "AnlsGrouping_60_Aval",
              "groupValue": "Week 26"
            }
          ],
          "rawValue": "84",
          "formattedValue": "84"
        },
        {
          "operationId": "Mth_06_01_n",
          "resultGroups": [
            {
              "groupingId": "AnlsGrouping_57_Trt01An",
              "groupId": "AnlsGrouping_57_Trt01An_02"
            },
            {
              "groupingId": "AnlsGrouping_58_Param",
              "groupValue": "Diastolic Blood Pressure (mmHg)"
            },
            {
              "groupingId": "AnlsGrouping_60_Aval",
              "groupValue": "Week 4"
            }
          ],
          "rawValue": "219",
          "formattedValue": "219"
        },
        {
          "operationId": "Mth_06_01_n",
          "resultGroups": [
            {
              "groupingId": "AnlsGrouping_57_Trt01An",
              "groupId": "AnlsGrouping_57_Trt01An_02"
            },
            {
              "groupingId": "AnlsGrouping_58_Param",
              "groupValue": "Diastolic Blood Pressure (mmHg)"
            },
            {
              "groupingId": "AnlsGrouping_60_Aval",
              "groupValue": "Week 6"
            }
          ],
          "rawValue": "203",
          "formattedValue": "203"
        },
        {
          "operationId": "Mth_06_01_n",
          "resultGroups": [
            {
              "groupingId": "AnlsGrouping_57_Trt01An",
              "groupId": "AnlsGrouping_57_Trt01An_02"
            },
            {
              "groupingId": "AnlsGrouping_58_Param",
              "groupValue": "Diastolic Blood Pressure (mmHg)"
            },
            {
              "groupingId": "AnlsGrouping_60_Aval",
              "groupValue": "Week 8"
            }
          ],
          "rawValue": "168",
          "formattedValue": "168"
        },
        {
          "operationId": "Mth_06_01_n",
          "resultGroups": [
            {
              "groupingId": "AnlsGrouping_57_Trt01An",
              "groupId": "AnlsGrouping_57_Trt01An_02"
            },
            {
              "groupingId": "AnlsGrouping_58_Param",
              "groupValue": "Pulse Rate (beats/min)"
            },
            {
              "groupingId": "AnlsGrouping_60_Aval",
              "groupValue": "End of Treatment"
            }
          ],
          "rawValue": "218",
          "formattedValue": "218"
        },
        {
          "operationId": "Mth_06_01_n",
          "resultGroups": [
            {
              "groupingId": "AnlsGrouping_57_Trt01An",
              "groupId": "AnlsGrouping_57_Trt01An_02"
            },
            {
              "groupingId": "AnlsGrouping_58_Param",
              "groupValue": "Pulse Rate (beats/min)"
            },
            {
              "groupingId": "AnlsGrouping_60_Aval",
              "groupValue": "Week 12"
            }
          ],
          "rawValue": "150",
          "formattedValue": "150"
        },
        {
          "operationId": "Mth_06_01_n",
          "resultGroups": [
            {
              "groupingId": "AnlsGrouping_57_Trt01An",
              "groupId": "AnlsGrouping_57_Trt01An_02"
            },
            {
              "groupingId": "AnlsGrouping_58_Param",
              "groupValue": "Pulse Rate (beats/min)"
            },
            {
              "groupingId": "AnlsGrouping_60_Aval",
              "groupValue": "Week 16"
            }
          ],
          "rawValue": "111",
          "formattedValue": "111"
        },
        {
          "operationId": "Mth_06_01_n",
          "resultGroups": [
            {
              "groupingId": "AnlsGrouping_57_Trt01An",
              "groupId": "AnlsGrouping_57_Trt01An_02"
            },
            {
              "groupingId": "AnlsGrouping_58_Param",
              "groupValue": "Pulse Rate (beats/min)"
            },
            {
              "groupingId": "AnlsGrouping_60_Aval",
              "groupValue": "Week 2"
            }
          ],
          "rawValue": "243",
          "formattedValue": "243"
        },
        {
          "operationId": "Mth_06_01_n",
          "resultGroups": [
            {
              "groupingId": "AnlsGrouping_57_Trt01An",
              "groupId": "AnlsGrouping_57_Trt01An_02"
            },
            {
              "groupingId": "AnlsGrouping_58_Param",
              "groupValue": "Pulse Rate (beats/min)"
            },
            {
              "groupingId": "AnlsGrouping_60_Aval",
              "groupValue": "Week 20"
            }
          ],
          "rawValue": "96",
          "formattedValue": "96"
        },
        {
          "operationId": "Mth_06_01_n",
          "resultGroups": [
            {
              "groupingId": "AnlsGrouping_57_Trt01An",
              "groupId": "AnlsGrouping_57_Trt01An_02"
            },
            {
              "groupingId": "AnlsGrouping_58_Param",
              "groupValue": "Pulse Rate (beats/min)"
            },
            {
              "groupingId": "AnlsGrouping_60_Aval",
              "groupValue": "Week 24"
            }
          ],
          "rawValue": "90",
          "formattedValue": "90"
        },
        {
          "operationId": "Mth_06_01_n",
          "resultGroups": [
            {
              "groupingId": "AnlsGrouping_57_Trt01An",
              "groupId": "AnlsGrouping_57_Trt01An_02"
            },
            {
              "groupingId": "AnlsGrouping_58_Param",
              "groupValue": "Pulse Rate (beats/min)"
            },
            {
              "groupingId": "AnlsGrouping_60_Aval",
              "groupValue": "Week 26"
            }
          ],
          "rawValue": "84",
          "formattedValue": "84"
        },
        {
          "operationId": "Mth_06_01_n",
          "resultGroups": [
            {
              "groupingId": "AnlsGrouping_57_Trt01An",
              "groupId": "AnlsGrouping_57_Trt01An_02"
            },
            {
              "groupingId": "AnlsGrouping_58_Param",
              "groupValue": "Pulse Rate (beats/min)"
            },
            {
              "groupingId": "AnlsGrouping_60_Aval",
              "groupValue": "Week 4"
            }
          ],
          "rawValue": "219",
          "formattedValue": "219"
        },
        {
          "operationId": "Mth_06_01_n",
          "resultGroups": [
            {
              "groupingId": "AnlsGrouping_57_Trt01An",
              "groupId": "AnlsGrouping_57_Trt01An_02"
            },
            {
              "groupingId": "AnlsGrouping_58_Param",
              "groupValue": "Pulse Rate (beats/min)"
            },
            {
              "groupingId": "AnlsGrouping_60_Aval",
              "groupValue": "Week 6"
            }
          ],
          "rawValue": "203",
          "formattedValue": "203"
        },
        {
          "operationId": "Mth_06_01_n",
          "resultGroups": [
            {
              "groupingId": "AnlsGrouping_57_Trt01An",
              "groupId": "AnlsGrouping_57_Trt01An_02"
            },
            {
              "groupingId": "AnlsGrouping_58_Param",
              "groupValue": "Pulse Rate (beats/min)"
            },
            {
              "groupingId": "AnlsGrouping_60_Aval",
              "groupValue": "Week 8"
            }
          ],
          "rawValue": "168",
          "formattedValue": "168"
        },
        {
          "operationId": "Mth_06_01_n",
          "resultGroups": [
            {
              "groupingId": "AnlsGrouping_57_Trt01An",
              "groupId": "AnlsGrouping_57_Trt01An_02"
            },
            {
              "groupingId": "AnlsGrouping_58_Param",
              "groupValue": "Systolic Blood Pressure (mmHg)"
            },
            {
              "groupingId": "AnlsGrouping_60_Aval",
              "groupValue": "End of Treatment"
            }
          ],
          "rawValue": "218",
          "formattedValue": "218"
        },
        {
          "operationId": "Mth_06_01_n",
          "resultGroups": [
            {
              "groupingId": "AnlsGrouping_57_Trt01An",
              "groupId": "AnlsGrouping_57_Trt01An_02"
            },
            {
              "groupingId": "AnlsGrouping_58_Param",
              "groupValue": "Systolic Blood Pressure (mmHg)"
            },
            {
              "groupingId": "AnlsGrouping_60_Aval",
              "groupValue": "Week 12"
            }
          ],
          "rawValue": "150",
          "formattedValue": "150"
        },
        {
          "operationId": "Mth_06_01_n",
          "resultGroups": [
            {
              "groupingId": "AnlsGrouping_57_Trt01An",
              "groupId": "AnlsGrouping_57_Trt01An_02"
            },
            {
              "groupingId": "AnlsGrouping_58_Param",
              "groupValue": "Systolic Blood Pressure (mmHg)"
            },
            {
              "groupingId": "AnlsGrouping_60_Aval",
              "groupValue": "Week 16"
            }
          ],
          "rawValue": "111",
          "formattedValue": "111"
        },
        {
          "operationId": "Mth_06_01_n",
          "resultGroups": [
            {
              "groupingId": "AnlsGrouping_57_Trt01An",
              "groupId": "AnlsGrouping_57_Trt01An_02"
            },
            {
              "groupingId": "AnlsGrouping_58_Param",
              "groupValue": "Systolic Blood Pressure (mmHg)"
            },
            {
              "groupingId": "AnlsGrouping_60_Aval",
              "groupValue": "Week 2"
            }
          ],
          "rawValue": "243",
          "formattedValue": "243"
        },
        {
          "operationId": "Mth_06_01_n",
          "resultGroups": [
            {
              "groupingId": "AnlsGrouping_57_Trt01An",
              "groupId": "AnlsGrouping_57_Trt01An_02"
            },
            {
              "groupingId": "AnlsGrouping_58_Param",
              "groupValue": "Systolic Blood Pressure (mmHg)"
            },
            {
              "groupingId": "AnlsGrouping_60_Aval",
              "groupValue": "Week 20"
            }
          ],
          "rawValue": "96",
          "formattedValue": "96"
        },
        {
          "operationId": "Mth_06_01_n",
          "resultGroups": [
            {
              "groupingId": "AnlsGrouping_57_Trt01An",
              "groupId": "AnlsGrouping_57_Trt01An_02"
            },
            {
              "groupingId": "AnlsGrouping_58_Param",
              "groupValue": "Systolic Blood Pressure (mmHg)"
            },
            {
              "groupingId": "AnlsGrouping_60_Aval",
              "groupValue": "Week 24"
            }
          ],
          "rawValue": "90",
          "formattedValue": "90"
        },
        {
          "operationId": "Mth_06_01_n",
          "resultGroups": [
            {
              "groupingId": "AnlsGrouping_57_Trt01An",
              "groupId": "AnlsGrouping_57_Trt01An_02"
            },
            {
              "groupingId": "AnlsGrouping_58_Param",
              "groupValue": "Systolic Blood Pressure (mmHg)"
            },
            {
              "groupingId": "AnlsGrouping_60_Aval",
              "groupValue": "Week 26"
            }
          ],
          "rawValue": "84",
          "formattedValue": "84"
        },
        {
          "operationId": "Mth_06_01_n",
          "resultGroups": [
            {
              "groupingId": "AnlsGrouping_57_Trt01An",
              "groupId": "AnlsGrouping_57_Trt01An_02"
            },
            {
              "groupingId": "AnlsGrouping_58_Param",
              "groupValue": "Systolic Blood Pressure (mmHg)"
            },
            {
              "groupingId": "AnlsGrouping_60_Aval",
              "groupValue": "Week 4"
            }
          ],
          "rawValue": "219",
          "formattedValue": "219"
        },
        {
          "operationId": "Mth_06_01_n",
          "resultGroups": [
            {
              "groupingId": "AnlsGrouping_57_Trt01An",
              "groupId": "AnlsGrouping_57_Trt01An_02"
            },
            {
              "groupingId": "AnlsGrouping_58_Param",
              "groupValue": "Systolic Blood Pressure (mmHg)"
            },
            {
              "groupingId": "AnlsGrouping_60_Aval",
              "groupValue": "Week 6"
            }
          ],
          "rawValue": "203",
          "formattedValue": "203"
        },
        {
          "operationId": "Mth_06_01_n",
          "resultGroups": [
            {
              "groupingId": "AnlsGrouping_57_Trt01An",
              "groupId": "AnlsGrouping_57_Trt01An_02"
            },
            {
              "groupingId": "AnlsGrouping_58_Param",
              "groupValue": "Systolic Blood Pressure (mmHg)"
            },
            {
              "groupingId": "AnlsGrouping_60_Aval",
              "groupValue": "Week 8"
            }
          ],
          "rawValue": "168",
          "formattedValue": "168"
        },
        {
          "operationId": "Mth_06_01_n",
          "resultGroups": [
            {
              "groupingId": "AnlsGrouping_57_Trt01An",
              "groupId": "AnlsGrouping_57_Trt01An_02"
            },
            {
              "groupingId": "AnlsGrouping_58_Param",
              "groupValue": "Temperature (C)"
            },
            {
              "groupingId": "AnlsGrouping_60_Aval",
              "groupValue": "End of Treatment"
            }
          ],
          "rawValue": "73",
          "formattedValue": "73"
        },
        {
          "operationId": "Mth_06_01_n",
          "resultGroups": [
            {
              "groupingId": "AnlsGrouping_57_Trt01An",
              "groupId": "AnlsGrouping_57_Trt01An_02"
            },
            {
              "groupingId": "AnlsGrouping_58_Param",
              "groupValue": "Temperature (C)"
            },
            {
              "groupingId": "AnlsGrouping_60_Aval",
              "groupValue": "Week 12"
            }
          ],
          "rawValue": "50",
          "formattedValue": "50"
        },
        {
          "operationId": "Mth_06_01_n",
          "resultGroups": [
            {
              "groupingId": "AnlsGrouping_57_Trt01An",
              "groupId": "AnlsGrouping_57_Trt01An_02"
            },
            {
              "groupingId": "AnlsGrouping_58_Param",
              "groupValue": "Temperature (C)"
            },
            {
              "groupingId": "AnlsGrouping_60_Aval",
              "groupValue": "Week 16"
            }
          ],
          "rawValue": "37",
          "formattedValue": "37"
        },
        {
          "operationId": "Mth_06_01_n",
          "resultGroups": [
            {
              "groupingId": "AnlsGrouping_57_Trt01An",
              "groupId": "AnlsGrouping_57_Trt01An_02"
            },
            {
              "groupingId": "AnlsGrouping_58_Param",
              "groupValue": "Temperature (C)"
            },
            {
              "groupingId": "AnlsGrouping_60_Aval",
              "groupValue": "Week 2"
            }
          ],
          "rawValue": "81",
          "formattedValue": "81"
        },
        {
          "operationId": "Mth_06_01_n",
          "resultGroups": [
            {
              "groupingId": "AnlsGrouping_57_Trt01An",
              "groupId": "AnlsGrouping_57_Trt01An_02"
            },
            {
              "groupingId": "AnlsGrouping_58_Param",
              "groupValue": "Temperature (C)"
            },
            {
              "groupingId": "AnlsGrouping_60_Aval",
              "groupValue": "Week 20"
            }
          ],
          "rawValue": "32",
          "formattedValue": "32"
        },
        {
          "operationId": "Mth_06_01_n",
          "resultGroups": [
            {
              "groupingId": "AnlsGrouping_57_Trt01An",
              "groupId": "AnlsGrouping_57_Trt01An_02"
            },
            {
              "groupingId": "AnlsGrouping_58_Param",
              "groupValue": "Temperature (C)"
            },
            {
              "groupingId": "AnlsGrouping_60_Aval",
              "groupValue": "Week 24"
            }
          ],
          "rawValue": "29",
          "formattedValue": "29"
        },
        {
          "operationId": "Mth_06_01_n",
          "resultGroups": [
            {
              "groupingId": "AnlsGrouping_57_Trt01An",
              "groupId": "AnlsGrouping_57_Trt01An_02"
            },
            {
              "groupingId": "AnlsGrouping_58_Param",
              "groupValue": "Temperature (C)"
            },
            {
              "groupingId": "AnlsGrouping_60_Aval",
              "groupValue": "Week 26"
            }
          ],
          "rawValue": "28",
          "formattedValue": "28"
        },
        {
          "operationId": "Mth_06_01_n",
          "resultGroups": [
            {
              "groupingId": "AnlsGrouping_57_Trt01An",
              "groupId": "AnlsGrouping_57_Trt01An_02"
            },
            {
              "groupingId": "AnlsGrouping_58_Param",
              "groupValue": "Temperature (C)"
            },
            {
              "groupingId": "AnlsGrouping_60_Aval",
              "groupValue": "Week 4"
            }
          ],
          "rawValue": "73",
          "formattedValue": "73"
        },
        {
          "operationId": "Mth_06_01_n",
          "resultGroups": [
            {
              "groupingId": "AnlsGrouping_57_Trt01An",
              "groupId": "AnlsGrouping_57_Trt01An_02"
            },
            {
              "groupingId": "AnlsGrouping_58_Param",
              "groupValue": "Temperature (C)"
            },
            {
              "groupingId": "AnlsGrouping_60_Aval",
              "groupValue": "Week 6"
            }
          ],
          "rawValue": "68",
          "formattedValue": "68"
        },
        {
          "operationId": "Mth_06_01_n",
          "resultGroups": [
            {
              "groupingId": "AnlsGrouping_57_Trt01An",
              "groupId": "AnlsGrouping_57_Trt01An_02"
            },
            {
              "groupingId": "AnlsGrouping_58_Param",
              "groupValue": "Temperature (C)"
            },
            {
              "groupingId": "AnlsGrouping_60_Aval",
              "groupValue": "Week 8"
            }
          ],
          "rawValue": "56",
          "formattedValue": "56"
        },
        {
          "operationId": "Mth_06_01_n",
          "resultGroups": [
            {
              "groupingId": "AnlsGrouping_57_Trt01An",
              "groupId": "AnlsGrouping_57_Trt01An_02"
            },
            {
              "groupingId": "AnlsGrouping_58_Param",
              "groupValue": "Weight (kg)"
            },
            {
              "groupingId": "AnlsGrouping_60_Aval",
              "groupValue": "End of Treatment"
            }
          ],
          "rawValue": "72",
          "formattedValue": "72"
        },
        {
          "operationId": "Mth_06_01_n",
          "resultGroups": [
            {
              "groupingId": "AnlsGrouping_57_Trt01An",
              "groupId": "AnlsGrouping_57_Trt01An_02"
            },
            {
              "groupingId": "AnlsGrouping_58_Param",
              "groupValue": "Weight (kg)"
            },
            {
              "groupingId": "AnlsGrouping_60_Aval",
              "groupValue": "Week 12"
            }
          ],
          "rawValue": "50",
          "formattedValue": "50"
        },
        {
          "operationId": "Mth_06_01_n",
          "resultGroups": [
            {
              "groupingId": "AnlsGrouping_57_Trt01An",
              "groupId": "AnlsGrouping_57_Trt01An_02"
            },
            {
              "groupingId": "AnlsGrouping_58_Param",
              "groupValue": "Weight (kg)"
            },
            {
              "groupingId": "AnlsGrouping_60_Aval",
              "groupValue": "Week 16"
            }
          ],
          "rawValue": "37",
          "formattedValue": "37"
        },
        {
          "operationId": "Mth_06_01_n",
          "resultGroups": [
            {
              "groupingId": "AnlsGrouping_57_Trt01An",
              "groupId": "AnlsGrouping_57_Trt01An_02"
            },
            {
              "groupingId": "AnlsGrouping_58_Param",
              "groupValue": "Weight (kg)"
            },
            {
              "groupingId": "AnlsGrouping_60_Aval",
              "groupValue": "Week 2"
            }
          ],
          "rawValue": "81",
          "formattedValue": "81"
        },
        {
          "operationId": "Mth_06_01_n",
          "resultGroups": [
            {
              "groupingId": "AnlsGrouping_57_Trt01An",
              "groupId": "AnlsGrouping_57_Trt01An_02"
            },
            {
              "groupingId": "AnlsGrouping_58_Param",
              "groupValue": "Weight (kg)"
            },
            {
              "groupingId": "AnlsGrouping_60_Aval",
              "groupValue": "Week 20"
            }
          ],
          "rawValue": "32",
          "formattedValue": "32"
        },
        {
          "operationId": "Mth_06_01_n",
          "resultGroups": [
            {
              "groupingId": "AnlsGrouping_57_Trt01An",
              "groupId": "AnlsGrouping_57_Trt01An_02"
            },
            {
              "groupingId": "AnlsGrouping_58_Param",
              "groupValue": "Weight (kg)"
            },
            {
              "groupingId": "AnlsGrouping_60_Aval",
              "groupValue": "Week 24"
            }
          ],
          "rawValue": "30",
          "formattedValue": "30"
        },
        {
          "operationId": "Mth_06_01_n",
          "resultGroups": [
            {
              "groupingId": "AnlsGrouping_57_Trt01An",
              "groupId": "AnlsGrouping_57_Trt01An_02"
            },
            {
              "groupingId": "AnlsGrouping_58_Param",
              "groupValue": "Weight (kg)"
            },
            {
              "groupingId": "AnlsGrouping_60_Aval",
              "groupValue": "Week 26"
            }
          ],
          "rawValue": "28",
          "formattedValue": "28"
        },
        {
          "operationId": "Mth_06_01_n",
          "resultGroups": [
            {
              "groupingId": "AnlsGrouping_57_Trt01An",
              "groupId": "AnlsGrouping_57_Trt01An_02"
            },
            {
              "groupingId": "AnlsGrouping_58_Param",
              "groupValue": "Weight (kg)"
            },
            {
              "groupingId": "AnlsGrouping_60_Aval",
              "groupValue": "Week 4"
            }
          ],
          "rawValue": "72",
          "formattedValue": "72"
        },
        {
          "operationId": "Mth_06_01_n",
          "resultGroups": [
            {
              "groupingId": "AnlsGrouping_57_Trt01An",
              "groupId": "AnlsGrouping_57_Trt01An_02"
            },
            {
              "groupingId": "AnlsGrouping_58_Param",
              "groupValue": "Weight (kg)"
            },
            {
              "groupingId": "AnlsGrouping_60_Aval",
              "groupValue": "Week 6"
            }
          ],
          "rawValue": "67",
          "formattedValue": "67"
        },
        {
          "operationId": "Mth_06_01_n",
          "resultGroups": [
            {
              "groupingId": "AnlsGrouping_57_Trt01An",
              "groupId": "AnlsGrouping_57_Trt01An_02"
            },
            {
              "groupingId": "AnlsGrouping_58_Param",
              "groupValue": "Weight (kg)"
            },
            {
              "groupingId": "AnlsGrouping_60_Aval",
              "groupValue": "Week 8"
            }
          ],
          "rawValue": "56",
          "formattedValue": "56"
        },
        {
          "operationId": "Mth_06_01_n",
          "resultGroups": [
            {
              "groupingId": "AnlsGrouping_57_Trt01An",
              "groupId": "AnlsGrouping_57_Trt01An_03"
            },
            {
              "groupingId": "AnlsGrouping_58_Param",
              "groupValue": "Diastolic Blood Pressure (mmHg)"
            },
            {
              "groupingId": "AnlsGrouping_60_Aval",
              "groupValue": "End of Treatment"
            }
          ],
          "rawValue": "246",
          "formattedValue": "246"
        },
        {
          "operationId": "Mth_06_01_n",
          "resultGroups": [
            {
              "groupingId": "AnlsGrouping_57_Trt01An",
              "groupId": "AnlsGrouping_57_Trt01An_03"
            },
            {
              "groupingId": "AnlsGrouping_58_Param",
              "groupValue": "Diastolic Blood Pressure (mmHg)"
            },
            {
              "groupingId": "AnlsGrouping_60_Aval",
              "groupValue": "Week 12"
            }
          ],
          "rawValue": "207",
          "formattedValue": "207"
        },
        {
          "operationId": "Mth_06_01_n",
          "resultGroups": [
            {
              "groupingId": "AnlsGrouping_57_Trt01An",
              "groupId": "AnlsGrouping_57_Trt01An_03"
            },
            {
              "groupingId": "AnlsGrouping_58_Param",
              "groupValue": "Diastolic Blood Pressure (mmHg)"
            },
            {
              "groupingId": "AnlsGrouping_60_Aval",
              "groupValue": "Week 16"
            }
          ],
          "rawValue": "204",
          "formattedValue": "204"
        },
        {
          "operationId": "Mth_06_01_n",
          "resultGroups": [
            {
              "groupingId": "AnlsGrouping_57_Trt01An",
              "groupId": "AnlsGrouping_57_Trt01An_03"
            },
            {
              "groupingId": "AnlsGrouping_58_Param",
              "groupValue": "Diastolic Blood Pressure (mmHg)"
            },
            {
              "groupingId": "AnlsGrouping_60_Aval",
              "groupValue": "Week 2"
            }
          ],
          "rawValue": "252",
          "formattedValue": "252"
        },
        {
          "operationId": "Mth_06_01_n",
          "resultGroups": [
            {
              "groupingId": "AnlsGrouping_57_Trt01An",
              "groupId": "AnlsGrouping_57_Trt01An_03"
            },
            {
              "groupingId": "AnlsGrouping_58_Param",
              "groupValue": "Diastolic Blood Pressure (mmHg)"
            },
            {
              "groupingId": "AnlsGrouping_60_Aval",
              "groupValue": "Week 20"
            }
          ],
          "rawValue": "198",
          "formattedValue": "198"
        },
        {
          "operationId": "Mth_06_01_n",
          "resultGroups": [
            {
              "groupingId": "AnlsGrouping_57_Trt01An",
              "groupId": "AnlsGrouping_57_Trt01An_03"
            },
            {
              "groupingId": "AnlsGrouping_58_Param",
              "groupValue": "Diastolic Blood Pressure (mmHg)"
            },
            {
              "groupingId": "AnlsGrouping_60_Aval",
              "groupValue": "Week 24"
            }
          ],
          "rawValue": "177",
          "formattedValue": "177"
        },
        {
          "operationId": "Mth_06_01_n",
          "resultGroups": [
            {
              "groupingId": "AnlsGrouping_57_Trt01An",
              "groupId": "AnlsGrouping_57_Trt01An_03"
            },
            {
              "groupingId": "AnlsGrouping_58_Param",
              "groupValue": "Diastolic Blood Pressure (mmHg)"
            },
            {
              "groupingId": "AnlsGrouping_60_Aval",
              "groupValue": "Week 26"
            }
          ],
          "rawValue": "174",
          "formattedValue": "174"
        },
        {
          "operationId": "Mth_06_01_n",
          "resultGroups": [
            {
              "groupingId": "AnlsGrouping_57_Trt01An",
              "groupId": "AnlsGrouping_57_Trt01An_03"
            },
            {
              "groupingId": "AnlsGrouping_58_Param",
              "groupValue": "Diastolic Blood Pressure (mmHg)"
            },
            {
              "groupingId": "AnlsGrouping_60_Aval",
              "groupValue": "Week 4"
            }
          ],
          "rawValue": "246",
          "formattedValue": "246"
        },
        {
          "operationId": "Mth_06_01_n",
          "resultGroups": [
            {
              "groupingId": "AnlsGrouping_57_Trt01An",
              "groupId": "AnlsGrouping_57_Trt01An_03"
            },
            {
              "groupingId": "AnlsGrouping_58_Param",
              "groupValue": "Diastolic Blood Pressure (mmHg)"
            },
            {
              "groupingId": "AnlsGrouping_60_Aval",
              "groupValue": "Week 6"
            }
          ],
          "rawValue": "228",
          "formattedValue": "228"
        },
        {
          "operationId": "Mth_06_01_n",
          "resultGroups": [
            {
              "groupingId": "AnlsGrouping_57_Trt01An",
              "groupId": "AnlsGrouping_57_Trt01An_03"
            },
            {
              "groupingId": "AnlsGrouping_58_Param",
              "groupValue": "Diastolic Blood Pressure (mmHg)"
            },
            {
              "groupingId": "AnlsGrouping_60_Aval",
              "groupValue": "Week 8"
            }
          ],
          "rawValue": "219",
          "formattedValue": "219"
        },
        {
          "operationId": "Mth_06_01_n",
          "resultGroups": [
            {
              "groupingId": "AnlsGrouping_57_Trt01An",
              "groupId": "AnlsGrouping_57_Trt01An_03"
            },
            {
              "groupingId": "AnlsGrouping_58_Param",
              "groupValue": "Pulse Rate (beats/min)"
            },
            {
              "groupingId": "AnlsGrouping_60_Aval",
              "groupValue": "End of Treatment"
            }
          ],
          "rawValue": "246",
          "formattedValue": "246"
        },
        {
          "operationId": "Mth_06_01_n",
          "resultGroups": [
            {
              "groupingId": "AnlsGrouping_57_Trt01An",
              "groupId": "AnlsGrouping_57_Trt01An_03"
            },
            {
              "groupingId": "AnlsGrouping_58_Param",
              "groupValue": "Pulse Rate (beats/min)"
            },
            {
              "groupingId": "AnlsGrouping_60_Aval",
              "groupValue": "Week 12"
            }
          ],
          "rawValue": "207",
          "formattedValue": "207"
        },
        {
          "operationId": "Mth_06_01_n",
          "resultGroups": [
            {
              "groupingId": "AnlsGrouping_57_Trt01An",
              "groupId": "AnlsGrouping_57_Trt01An_03"
            },
            {
              "groupingId": "AnlsGrouping_58_Param",
              "groupValue": "Pulse Rate (beats/min)"
            },
            {
              "groupingId": "AnlsGrouping_60_Aval",
              "groupValue": "Week 16"
            }
          ],
          "rawValue": "204",
          "formattedValue": "204"
        },
        {
          "operationId": "Mth_06_01_n",
          "resultGroups": [
            {
              "groupingId": "AnlsGrouping_57_Trt01An",
              "groupId": "AnlsGrouping_57_Trt01An_03"
            },
            {
              "groupingId": "AnlsGrouping_58_Param",
              "groupValue": "Pulse Rate (beats/min)"
            },
            {
              "groupingId": "AnlsGrouping_60_Aval",
              "groupValue": "Week 2"
            }
          ],
          "rawValue": "252",
          "formattedValue": "252"
        },
        {
          "operationId": "Mth_06_01_n",
          "resultGroups": [
            {
              "groupingId": "AnlsGrouping_57_Trt01An",
              "groupId": "AnlsGrouping_57_Trt01An_03"
            },
            {
              "groupingId": "AnlsGrouping_58_Param",
              "groupValue": "Pulse Rate (beats/min)"
            },
            {
              "groupingId": "AnlsGrouping_60_Aval",
              "groupValue": "Week 20"
            }
          ],
          "rawValue": "198",
          "formattedValue": "198"
        },
        {
          "operationId": "Mth_06_01_n",
          "resultGroups": [
            {
              "groupingId": "AnlsGrouping_57_Trt01An",
              "groupId": "AnlsGrouping_57_Trt01An_03"
            },
            {
              "groupingId": "AnlsGrouping_58_Param",
              "groupValue": "Pulse Rate (beats/min)"
            },
            {
              "groupingId": "AnlsGrouping_60_Aval",
              "groupValue": "Week 24"
            }
          ],
          "rawValue": "177",
          "formattedValue": "177"
        },
        {
          "operationId": "Mth_06_01_n",
          "resultGroups": [
            {
              "groupingId": "AnlsGrouping_57_Trt01An",
              "groupId": "AnlsGrouping_57_Trt01An_03"
            },
            {
              "groupingId": "AnlsGrouping_58_Param",
              "groupValue": "Pulse Rate (beats/min)"
            },
            {
              "groupingId": "AnlsGrouping_60_Aval",
              "groupValue": "Week 26"
            }
          ],
          "rawValue": "174",
          "formattedValue": "174"
        },
        {
          "operationId": "Mth_06_01_n",
          "resultGroups": [
            {
              "groupingId": "AnlsGrouping_57_Trt01An",
              "groupId": "AnlsGrouping_57_Trt01An_03"
            },
            {
              "groupingId": "AnlsGrouping_58_Param",
              "groupValue": "Pulse Rate (beats/min)"
            },
            {
              "groupingId": "AnlsGrouping_60_Aval",
              "groupValue": "Week 4"
            }
          ],
          "rawValue": "246",
          "formattedValue": "246"
        },
        {
          "operationId": "Mth_06_01_n",
          "resultGroups": [
            {
              "groupingId": "AnlsGrouping_57_Trt01An",
              "groupId": "AnlsGrouping_57_Trt01An_03"
            },
            {
              "groupingId": "AnlsGrouping_58_Param",
              "groupValue": "Pulse Rate (beats/min)"
            },
            {
              "groupingId": "AnlsGrouping_60_Aval",
              "groupValue": "Week 6"
            }
          ],
          "rawValue": "228",
          "formattedValue": "228"
        },
        {
          "operationId": "Mth_06_01_n",
          "resultGroups": [
            {
              "groupingId": "AnlsGrouping_57_Trt01An",
              "groupId": "AnlsGrouping_57_Trt01An_03"
            },
            {
              "groupingId": "AnlsGrouping_58_Param",
              "groupValue": "Pulse Rate (beats/min)"
            },
            {
              "groupingId": "AnlsGrouping_60_Aval",
              "groupValue": "Week 8"
            }
          ],
          "rawValue": "219",
          "formattedValue": "219"
        },
        {
          "operationId": "Mth_06_01_n",
          "resultGroups": [
            {
              "groupingId": "AnlsGrouping_57_Trt01An",
              "groupId": "AnlsGrouping_57_Trt01An_03"
            },
            {
              "groupingId": "AnlsGrouping_58_Param",
              "groupValue": "Systolic Blood Pressure (mmHg)"
            },
            {
              "groupingId": "AnlsGrouping_60_Aval",
              "groupValue": "End of Treatment"
            }
          ],
          "rawValue": "246",
          "formattedValue": "246"
        },
        {
          "operationId": "Mth_06_01_n",
          "resultGroups": [
            {
              "groupingId": "AnlsGrouping_57_Trt01An",
              "groupId": "AnlsGrouping_57_Trt01An_03"
            },
            {
              "groupingId": "AnlsGrouping_58_Param",
              "groupValue": "Systolic Blood Pressure (mmHg)"
            },
            {
              "groupingId": "AnlsGrouping_60_Aval",
              "groupValue": "Week 12"
            }
          ],
          "rawValue": "207",
          "formattedValue": "207"
        },
        {
          "operationId": "Mth_06_01_n",
          "resultGroups": [
            {
              "groupingId": "AnlsGrouping_57_Trt01An",
              "groupId": "AnlsGrouping_57_Trt01An_03"
            },
            {
              "groupingId": "AnlsGrouping_58_Param",
              "groupValue": "Systolic Blood Pressure (mmHg)"
            },
            {
              "groupingId": "AnlsGrouping_60_Aval",
              "groupValue": "Week 16"
            }
          ],
          "rawValue": "204",
          "formattedValue": "204"
        },
        {
          "operationId": "Mth_06_01_n",
          "resultGroups": [
            {
              "groupingId": "AnlsGrouping_57_Trt01An",
              "groupId": "AnlsGrouping_57_Trt01An_03"
            },
            {
              "groupingId": "AnlsGrouping_58_Param",
              "groupValue": "Systolic Blood Pressure (mmHg)"
            },
            {
              "groupingId": "AnlsGrouping_60_Aval",
              "groupValue": "Week 2"
            }
          ],
          "rawValue": "252",
          "formattedValue": "252"
        },
        {
          "operationId": "Mth_06_01_n",
          "resultGroups": [
            {
              "groupingId": "AnlsGrouping_57_Trt01An",
              "groupId": "AnlsGrouping_57_Trt01An_03"
            },
            {
              "groupingId": "AnlsGrouping_58_Param",
              "groupValue": "Systolic Blood Pressure (mmHg)"
            },
            {
              "groupingId": "AnlsGrouping_60_Aval",
              "groupValue": "Week 20"
            }
          ],
          "rawValue": "198",
          "formattedValue": "198"
        },
        {
          "operationId": "Mth_06_01_n",
          "resultGroups": [
            {
              "groupingId": "AnlsGrouping_57_Trt01An",
              "groupId": "AnlsGrouping_57_Trt01An_03"
            },
            {
              "groupingId": "AnlsGrouping_58_Param",
              "groupValue": "Systolic Blood Pressure (mmHg)"
            },
            {
              "groupingId": "AnlsGrouping_60_Aval",
              "groupValue": "Week 24"
            }
          ],
          "rawValue": "177",
          "formattedValue": "177"
        },
        {
          "operationId": "Mth_06_01_n",
          "resultGroups": [
            {
              "groupingId": "AnlsGrouping_57_Trt01An",
              "groupId": "AnlsGrouping_57_Trt01An_03"
            },
            {
              "groupingId": "AnlsGrouping_58_Param",
              "groupValue": "Systolic Blood Pressure (mmHg)"
            },
            {
              "groupingId": "AnlsGrouping_60_Aval",
              "groupValue": "Week 26"
            }
          ],
          "rawValue": "174",
          "formattedValue": "174"
        },
        {
          "operationId": "Mth_06_01_n",
          "resultGroups": [
            {
              "groupingId": "AnlsGrouping_57_Trt01An",
              "groupId": "AnlsGrouping_57_Trt01An_03"
            },
            {
              "groupingId": "AnlsGrouping_58_Param",
              "groupValue": "Systolic Blood Pressure (mmHg)"
            },
            {
              "groupingId": "AnlsGrouping_60_Aval",
              "groupValue": "Week 4"
            }
          ],
          "rawValue": "246",
          "formattedValue": "246"
        },
        {
          "operationId": "Mth_06_01_n",
          "resultGroups": [
            {
              "groupingId": "AnlsGrouping_57_Trt01An",
              "groupId": "AnlsGrouping_57_Trt01An_03"
            },
            {
              "groupingId": "AnlsGrouping_58_Param",
              "groupValue": "Systolic Blood Pressure (mmHg)"
            },
            {
              "groupingId": "AnlsGrouping_60_Aval",
              "groupValue": "Week 6"
            }
          ],
          "rawValue": "228",
          "formattedValue": "228"
        },
        {
          "operationId": "Mth_06_01_n",
          "resultGroups": [
            {
              "groupingId": "AnlsGrouping_57_Trt01An",
              "groupId": "AnlsGrouping_57_Trt01An_03"
            },
            {
              "groupingId": "AnlsGrouping_58_Param",
              "groupValue": "Systolic Blood Pressure (mmHg)"
            },
            {
              "groupingId": "AnlsGrouping_60_Aval",
              "groupValue": "Week 8"
            }
          ],
          "rawValue": "219",
          "formattedValue": "219"
        },
        {
          "operationId": "Mth_06_01_n",
          "resultGroups": [
            {
              "groupingId": "AnlsGrouping_57_Trt01An",
              "groupId": "AnlsGrouping_57_Trt01An_03"
            },
            {
              "groupingId": "AnlsGrouping_58_Param",
              "groupValue": "Temperature (C)"
            },
            {
              "groupingId": "AnlsGrouping_60_Aval",
              "groupValue": "End of Treatment"
            }
          ],
          "rawValue": "82",
          "formattedValue": "82"
        },
        {
          "operationId": "Mth_06_01_n",
          "resultGroups": [
            {
              "groupingId": "AnlsGrouping_57_Trt01An",
              "groupId": "AnlsGrouping_57_Trt01An_03"
            },
            {
              "groupingId": "AnlsGrouping_58_Param",
              "groupValue": "Temperature (C)"
            },
            {
              "groupingId": "AnlsGrouping_60_Aval",
              "groupValue": "Week 12"
            }
          ],
          "rawValue": "69",
          "formattedValue": "69"
        },
        {
          "operationId": "Mth_06_01_n",
          "resultGroups": [
            {
              "groupingId": "AnlsGrouping_57_Trt01An",
              "groupId": "AnlsGrouping_57_Trt01An_03"
            },
            {
              "groupingId": "AnlsGrouping_58_Param",
              "groupValue": "Temperature (C)"
            },
            {
              "groupingId": "AnlsGrouping_60_Aval",
              "groupValue": "Week 16"
            }
          ],
          "rawValue": "68",
          "formattedValue": "68"
        },
        {
          "operationId": "Mth_06_01_n",
          "resultGroups": [
            {
              "groupingId": "AnlsGrouping_57_Trt01An",
              "groupId": "AnlsGrouping_57_Trt01An_03"
            },
            {
              "groupingId": "AnlsGrouping_58_Param",
              "groupValue": "Temperature (C)"
            },
            {
              "groupingId": "AnlsGrouping_60_Aval",
              "groupValue": "Week 2"
            }
          ],
          "rawValue": "83",
          "formattedValue": "83"
        },
        {
          "operationId": "Mth_06_01_n",
          "resultGroups": [
            {
              "groupingId": "AnlsGrouping_57_Trt01An",
              "groupId": "AnlsGrouping_57_Trt01An_03"
            },
            {
              "groupingId": "AnlsGrouping_58_Param",
              "groupValue": "Temperature (C)"
            },
            {
              "groupingId": "AnlsGrouping_60_Aval",
              "groupValue": "Week 20"
            }
          ],
          "rawValue": "64",
          "formattedValue": "64"
        },
        {
          "operationId": "Mth_06_01_n",
          "resultGroups": [
            {
              "groupingId": "AnlsGrouping_57_Trt01An",
              "groupId": "AnlsGrouping_57_Trt01An_03"
            },
            {
              "groupingId": "AnlsGrouping_58_Param",
              "groupValue": "Temperature (C)"
            },
            {
              "groupingId": "AnlsGrouping_60_Aval",
              "groupValue": "Week 24"
            }
          ],
          "rawValue": "57",
          "formattedValue": "57"
        },
        {
          "operationId": "Mth_06_01_n",
          "resultGroups": [
            {
              "groupingId": "AnlsGrouping_57_Trt01An",
              "groupId": "AnlsGrouping_57_Trt01An_03"
            },
            {
              "groupingId": "AnlsGrouping_58_Param",
              "groupValue": "Temperature (C)"
            },
            {
              "groupingId": "AnlsGrouping_60_Aval",
              "groupValue": "Week 26"
            }
          ],
          "rawValue": "58",
          "formattedValue": "58"
        },
        {
          "operationId": "Mth_06_01_n",
          "resultGroups": [
            {
              "groupingId": "AnlsGrouping_57_Trt01An",
              "groupId": "AnlsGrouping_57_Trt01An_03"
            },
            {
              "groupingId": "AnlsGrouping_58_Param",
              "groupValue": "Temperature (C)"
            },
            {
              "groupingId": "AnlsGrouping_60_Aval",
              "groupValue": "Week 4"
            }
          ],
          "rawValue": "81",
          "formattedValue": "81"
        },
        {
          "operationId": "Mth_06_01_n",
          "resultGroups": [
            {
              "groupingId": "AnlsGrouping_57_Trt01An",
              "groupId": "AnlsGrouping_57_Trt01An_03"
            },
            {
              "groupingId": "AnlsGrouping_58_Param",
              "groupValue": "Temperature (C)"
            },
            {
              "groupingId": "AnlsGrouping_60_Aval",
              "groupValue": "Week 6"
            }
          ],
          "rawValue": "76",
          "formattedValue": "76"
        },
        {
          "operationId": "Mth_06_01_n",
          "resultGroups": [
            {
              "groupingId": "AnlsGrouping_57_Trt01An",
              "groupId": "AnlsGrouping_57_Trt01An_03"
            },
            {
              "groupingId": "AnlsGrouping_58_Param",
              "groupValue": "Temperature (C)"
            },
            {
              "groupingId": "AnlsGrouping_60_Aval",
              "groupValue": "Week 8"
            }
          ],
          "rawValue": "73",
          "formattedValue": "73"
        },
        {
          "operationId": "Mth_06_01_n",
          "resultGroups": [
            {
              "groupingId": "AnlsGrouping_57_Trt01An",
              "groupId": "AnlsGrouping_57_Trt01An_03"
            },
            {
              "groupingId": "AnlsGrouping_58_Param",
              "groupValue": "Weight (kg)"
            },
            {
              "groupingId": "AnlsGrouping_60_Aval",
              "groupValue": "End of Treatment"
            }
          ],
          "rawValue": "82",
          "formattedValue": "82"
        },
        {
          "operationId": "Mth_06_01_n",
          "resultGroups": [
            {
              "groupingId": "AnlsGrouping_57_Trt01An",
              "groupId": "AnlsGrouping_57_Trt01An_03"
            },
            {
              "groupingId": "AnlsGrouping_58_Param",
              "groupValue": "Weight (kg)"
            },
            {
              "groupingId": "AnlsGrouping_60_Aval",
              "groupValue": "Week 12"
            }
          ],
          "rawValue": "69",
          "formattedValue": "69"
        },
        {
          "operationId": "Mth_06_01_n",
          "resultGroups": [
            {
              "groupingId": "AnlsGrouping_57_Trt01An",
              "groupId": "AnlsGrouping_57_Trt01An_03"
            },
            {
              "groupingId": "AnlsGrouping_58_Param",
              "groupValue": "Weight (kg)"
            },
            {
              "groupingId": "AnlsGrouping_60_Aval",
              "groupValue": "Week 16"
            }
          ],
          "rawValue": "68",
          "formattedValue": "68"
        },
        {
          "operationId": "Mth_06_01_n",
          "resultGroups": [
            {
              "groupingId": "AnlsGrouping_57_Trt01An",
              "groupId": "AnlsGrouping_57_Trt01An_03"
            },
            {
              "groupingId": "AnlsGrouping_58_Param",
              "groupValue": "Weight (kg)"
            },
            {
              "groupingId": "AnlsGrouping_60_Aval",
              "groupValue": "Week 2"
            }
          ],
          "rawValue": "82",
          "formattedValue": "82"
        },
        {
          "operationId": "Mth_06_01_n",
          "resultGroups": [
            {
              "groupingId": "AnlsGrouping_57_Trt01An",
              "groupId": "AnlsGrouping_57_Trt01An_03"
            },
            {
              "groupingId": "AnlsGrouping_58_Param",
              "groupValue": "Weight (kg)"
            },
            {
              "groupingId": "AnlsGrouping_60_Aval",
              "groupValue": "Week 20"
            }
          ],
          "rawValue": "66",
          "formattedValue": "66"
        },
        {
          "operationId": "Mth_06_01_n",
          "resultGroups": [
            {
              "groupingId": "AnlsGrouping_57_Trt01An",
              "groupId": "AnlsGrouping_57_Trt01An_03"
            },
            {
              "groupingId": "AnlsGrouping_58_Param",
              "groupValue": "Weight (kg)"
            },
            {
              "groupingId": "AnlsGrouping_60_Aval",
              "groupValue": "Week 24"
            }
          ],
          "rawValue": "59",
          "formattedValue": "59"
        },
        {
          "operationId": "Mth_06_01_n",
          "resultGroups": [
            {
              "groupingId": "AnlsGrouping_57_Trt01An",
              "groupId": "AnlsGrouping_57_Trt01An_03"
            },
            {
              "groupingId": "AnlsGrouping_58_Param",
              "groupValue": "Weight (kg)"
            },
            {
              "groupingId": "AnlsGrouping_60_Aval",
              "groupValue": "Week 26"
            }
          ],
          "rawValue": "58",
          "formattedValue": "58"
        },
        {
          "operationId": "Mth_06_01_n",
          "resultGroups": [
            {
              "groupingId": "AnlsGrouping_57_Trt01An",
              "groupId": "AnlsGrouping_57_Trt01An_03"
            },
            {
              "groupingId": "AnlsGrouping_58_Param",
              "groupValue": "Weight (kg)"
            },
            {
              "groupingId": "AnlsGrouping_60_Aval",
              "groupValue": "Week 4"
            }
          ],
          "rawValue": "82",
          "formattedValue": "82"
        },
        {
          "operationId": "Mth_06_01_n",
          "resultGroups": [
            {
              "groupingId": "AnlsGrouping_57_Trt01An",
              "groupId": "AnlsGrouping_57_Trt01An_03"
            },
            {
              "groupingId": "AnlsGrouping_58_Param",
              "groupValue": "Weight (kg)"
            },
            {
              "groupingId": "AnlsGrouping_60_Aval",
              "groupValue": "Week 6"
            }
          ],
          "rawValue": "75",
          "formattedValue": "75"
        },
        {
          "operationId": "Mth_06_01_n",
          "resultGroups": [
            {
              "groupingId": "AnlsGrouping_57_Trt01An",
              "groupId": "AnlsGrouping_57_Trt01An_03"
            },
            {
              "groupingId": "AnlsGrouping_58_Param",
              "groupValue": "Weight (kg)"
            },
            {
              "groupingId": "AnlsGrouping_60_Aval",
              "groupValue": "Week 8"
            }
          ],
          "rawValue": "72",
          "formattedValue": "72"
        },
        {
          "operationId": "Mth_06_02_Mean",
          "resultGroups": [
            {
              "groupingId": "AnlsGrouping_57_Trt01An",
              "groupId": "AnlsGrouping_57_Trt01An_01"
            },
            {
              "groupingId": "AnlsGrouping_58_Param",
              "groupValue": "Diastolic Blood Pressure (mmHg)"
            },
            {
              "groupingId": "AnlsGrouping_60_Aval",
              "groupValue": "End of Treatment"
            }
          ],
          "rawValue": "73.819444444",
          "formattedValue": "73.8"
        },
        {
          "operationId": "Mth_06_02_Mean",
          "resultGroups": [
            {
              "groupingId": "AnlsGrouping_57_Trt01An",
              "groupId": "AnlsGrouping_57_Trt01An_01"
            },
            {
              "groupingId": "AnlsGrouping_58_Param",
              "groupValue": "Diastolic Blood Pressure (mmHg)"
            },
            {
              "groupingId": "AnlsGrouping_60_Aval",
              "groupValue": "Week 12"
            }
          ],
          "rawValue": "75.673076923",
          "formattedValue": "75.7"
        },
        {
          "operationId": "Mth_06_02_Mean",
          "resultGroups": [
            {
              "groupingId": "AnlsGrouping_57_Trt01An",
              "groupId": "AnlsGrouping_57_Trt01An_01"
            },
            {
              "groupingId": "AnlsGrouping_58_Param",
              "groupValue": "Diastolic Blood Pressure (mmHg)"
            },
            {
              "groupingId": "AnlsGrouping_60_Aval",
              "groupValue": "Week 16"
            }
          ],
          "rawValue": "75.23015873",
          "formattedValue": "75.2"
        },
        {
          "operationId": "Mth_06_02_Mean",
          "resultGroups": [
            {
              "groupingId": "AnlsGrouping_57_Trt01An",
              "groupId": "AnlsGrouping_57_Trt01An_01"
            },
            {
              "groupingId": "AnlsGrouping_58_Param",
              "groupValue": "Diastolic Blood Pressure (mmHg)"
            },
            {
              "groupingId": "AnlsGrouping_60_Aval",
              "groupValue": "Week 2"
            }
          ],
          "rawValue": "76.219123506",
          "formattedValue": "76.2"
        },
        {
          "operationId": "Mth_06_02_Mean",
          "resultGroups": [
            {
              "groupingId": "AnlsGrouping_57_Trt01An",
              "groupId": "AnlsGrouping_57_Trt01An_01"
            },
            {
              "groupingId": "AnlsGrouping_58_Param",
              "groupValue": "Diastolic Blood Pressure (mmHg)"
            },
            {
              "groupingId": "AnlsGrouping_60_Aval",
              "groupValue": "Week 20"
            }
          ],
          "rawValue": "73.666666667",
          "formattedValue": "73.7"
        },
        {
          "operationId": "Mth_06_02_Mean",
          "resultGroups": [
            {
              "groupingId": "AnlsGrouping_57_Trt01An",
              "groupId": "AnlsGrouping_57_Trt01An_01"
            },
            {
              "groupingId": "AnlsGrouping_58_Param",
              "groupValue": "Diastolic Blood Pressure (mmHg)"
            },
            {
              "groupingId": "AnlsGrouping_60_Aval",
              "groupValue": "Week 24"
            }
          ],
          "rawValue": "76.209876543",
          "formattedValue": "76.2"
        },
        {
          "operationId": "Mth_06_02_Mean",
          "resultGroups": [
            {
              "groupingId": "AnlsGrouping_57_Trt01An",
              "groupId": "AnlsGrouping_57_Trt01An_01"
            },
            {
              "groupingId": "AnlsGrouping_58_Param",
              "groupValue": "Diastolic Blood Pressure (mmHg)"
            },
            {
              "groupingId": "AnlsGrouping_60_Aval",
              "groupValue": "Week 26"
            }
          ],
          "rawValue": "72.946666667",
          "formattedValue": "72.9"
        },
        {
          "operationId": "Mth_06_02_Mean",
          "resultGroups": [
            {
              "groupingId": "AnlsGrouping_57_Trt01An",
              "groupId": "AnlsGrouping_57_Trt01An_01"
            },
            {
              "groupingId": "AnlsGrouping_58_Param",
              "groupValue": "Diastolic Blood Pressure (mmHg)"
            },
            {
              "groupingId": "AnlsGrouping_60_Aval",
              "groupValue": "Week 4"
            }
          ],
          "rawValue": "76.00462963",
          "formattedValue": "76.0"
        },
        {
          "operationId": "Mth_06_02_Mean",
          "resultGroups": [
            {
              "groupingId": "AnlsGrouping_57_Trt01An",
              "groupId": "AnlsGrouping_57_Trt01An_01"
            },
            {
              "groupingId": "AnlsGrouping_58_Param",
              "groupValue": "Diastolic Blood Pressure (mmHg)"
            },
            {
              "groupingId": "AnlsGrouping_60_Aval",
              "groupValue": "Week 6"
            }
          ],
          "rawValue": "74.902564103",
          "formattedValue": "74.9"
        },
        {
          "operationId": "Mth_06_02_Mean",
          "resultGroups": [
            {
              "groupingId": "AnlsGrouping_57_Trt01An",
              "groupId": "AnlsGrouping_57_Trt01An_01"
            },
            {
              "groupingId": "AnlsGrouping_58_Param",
              "groupValue": "Diastolic Blood Pressure (mmHg)"
            },
            {
              "groupingId": "AnlsGrouping_60_Aval",
              "groupValue": "Week 8"
            }
          ],
          "rawValue": "75.4",
          "formattedValue": "75.4"
        },
        {
          "operationId": "Mth_06_02_Mean",
          "resultGroups": [
            {
              "groupingId": "AnlsGrouping_57_Trt01An",
              "groupId": "AnlsGrouping_57_Trt01An_01"
            },
            {
              "groupingId": "AnlsGrouping_58_Param",
              "groupValue": "Pulse Rate (beats/min)"
            },
            {
              "groupingId": "AnlsGrouping_60_Aval",
              "groupValue": "End of Treatment"
            }
          ],
          "rawValue": "70.597222222",
          "formattedValue": "70.6"
        },
        {
          "operationId": "Mth_06_02_Mean",
          "resultGroups": [
            {
              "groupingId": "AnlsGrouping_57_Trt01An",
              "groupId": "AnlsGrouping_57_Trt01An_01"
            },
            {
              "groupingId": "AnlsGrouping_58_Param",
              "groupValue": "Pulse Rate (beats/min)"
            },
            {
              "groupingId": "AnlsGrouping_60_Aval",
              "groupValue": "Week 12"
            }
          ],
          "rawValue": "73.08974359",
          "formattedValue": "73.1"
        },
        {
          "operationId": "Mth_06_02_Mean",
          "resultGroups": [
            {
              "groupingId": "AnlsGrouping_57_Trt01An",
              "groupId": "AnlsGrouping_57_Trt01An_01"
            },
            {
              "groupingId": "AnlsGrouping_58_Param",
              "groupValue": "Pulse Rate (beats/min)"
            },
            {
              "groupingId": "AnlsGrouping_60_Aval",
              "groupValue": "Week 16"
            }
          ],
          "rawValue": "68.785714286",
          "formattedValue": "68.8"
        },
        {
          "operationId": "Mth_06_02_Mean",
          "resultGroups": [
            {
              "groupingId": "AnlsGrouping_57_Trt01An",
              "groupId": "AnlsGrouping_57_Trt01An_01"
            },
            {
              "groupingId": "AnlsGrouping_58_Param",
              "groupValue": "Pulse Rate (beats/min)"
            },
            {
              "groupingId": "AnlsGrouping_60_Aval",
              "groupValue": "Week 2"
            }
          ],
          "rawValue": "74.525896414",
          "formattedValue": "74.5"
        },
        {
          "operationId": "Mth_06_02_Mean",
          "resultGroups": [
            {
              "groupingId": "AnlsGrouping_57_Trt01An",
              "groupId": "AnlsGrouping_57_Trt01An_01"
            },
            {
              "groupingId": "AnlsGrouping_58_Param",
              "groupValue": "Pulse Rate (beats/min)"
            },
            {
              "groupingId": "AnlsGrouping_60_Aval",
              "groupValue": "Week 20"
            }
          ],
          "rawValue": "70.133333333",
          "formattedValue": "70.1"
        },
        {
          "operationId": "Mth_06_02_Mean",
          "resultGroups": [
            {
              "groupingId": "AnlsGrouping_57_Trt01An",
              "groupId": "AnlsGrouping_57_Trt01An_01"
            },
            {
              "groupingId": "AnlsGrouping_58_Param",
              "groupValue": "Pulse Rate (beats/min)"
            },
            {
              "groupingId": "AnlsGrouping_60_Aval",
              "groupValue": "Week 24"
            }
          ],
          "rawValue": "70.308641975",
          "formattedValue": "70.3"
        },
        {
          "operationId": "Mth_06_02_Mean",
          "resultGroups": [
            {
              "groupingId": "AnlsGrouping_57_Trt01An",
              "groupId": "AnlsGrouping_57_Trt01An_01"
            },
            {
              "groupingId": "AnlsGrouping_58_Param",
              "groupValue": "Pulse Rate (beats/min)"
            },
            {
              "groupingId": "AnlsGrouping_60_Aval",
              "groupValue": "Week 26"
            }
          ],
          "rawValue": "70.453333333",
          "formattedValue": "70.5"
        },
        {
          "operationId": "Mth_06_02_Mean",
          "resultGroups": [
            {
              "groupingId": "AnlsGrouping_57_Trt01An",
              "groupId": "AnlsGrouping_57_Trt01An_01"
            },
            {
              "groupingId": "AnlsGrouping_58_Param",
              "groupValue": "Pulse Rate (beats/min)"
            },
            {
              "groupingId": "AnlsGrouping_60_Aval",
              "groupValue": "Week 4"
            }
          ],
          "rawValue": "73.106481481",
          "formattedValue": "73.1"
        },
        {
          "operationId": "Mth_06_02_Mean",
          "resultGroups": [
            {
              "groupingId": "AnlsGrouping_57_Trt01An",
              "groupId": "AnlsGrouping_57_Trt01An_01"
            },
            {
              "groupingId": "AnlsGrouping_58_Param",
              "groupValue": "Pulse Rate (beats/min)"
            },
            {
              "groupingId": "AnlsGrouping_60_Aval",
              "groupValue": "Week 6"
            }
          ],
          "rawValue": "72.005128205",
          "formattedValue": "72.0"
        },
        {
          "operationId": "Mth_06_02_Mean",
          "resultGroups": [
            {
              "groupingId": "AnlsGrouping_57_Trt01An",
              "groupId": "AnlsGrouping_57_Trt01An_01"
            },
            {
              "groupingId": "AnlsGrouping_58_Param",
              "groupValue": "Pulse Rate (beats/min)"
            },
            {
              "groupingId": "AnlsGrouping_60_Aval",
              "groupValue": "Week 8"
            }
          ],
          "rawValue": "72.6",
          "formattedValue": "72.6"
        },
        {
          "operationId": "Mth_06_02_Mean",
          "resultGroups": [
            {
              "groupingId": "AnlsGrouping_57_Trt01An",
              "groupId": "AnlsGrouping_57_Trt01An_01"
            },
            {
              "groupingId": "AnlsGrouping_58_Param",
              "groupValue": "Systolic Blood Pressure (mmHg)"
            },
            {
              "groupingId": "AnlsGrouping_60_Aval",
              "groupValue": "End of Treatment"
            }
          ],
          "rawValue": "132.91666667",
          "formattedValue": "132.9"
        },
        {
          "operationId": "Mth_06_02_Mean",
          "resultGroups": [
            {
              "groupingId": "AnlsGrouping_57_Trt01An",
              "groupId": "AnlsGrouping_57_Trt01An_01"
            },
            {
              "groupingId": "AnlsGrouping_58_Param",
              "groupValue": "Systolic Blood Pressure (mmHg)"
            },
            {
              "groupingId": "AnlsGrouping_60_Aval",
              "groupValue": "Week 12"
            }
          ],
          "rawValue": "133.20512821",
          "formattedValue": "133.2"
        },
        {
          "operationId": "Mth_06_02_Mean",
          "resultGroups": [
            {
              "groupingId": "AnlsGrouping_57_Trt01An",
              "groupId": "AnlsGrouping_57_Trt01An_01"
            },
            {
              "groupingId": "AnlsGrouping_58_Param",
              "groupValue": "Systolic Blood Pressure (mmHg)"
            },
            {
              "groupingId": "AnlsGrouping_60_Aval",
              "groupValue": "Week 16"
            }
          ],
          "rawValue": "132.46031746",
          "formattedValue": "132.5"
        },
        {
          "operationId": "Mth_06_02_Mean",
          "resultGroups": [
            {
              "groupingId": "AnlsGrouping_57_Trt01An",
              "groupId": "AnlsGrouping_57_Trt01An_01"
            },
            {
              "groupingId": "AnlsGrouping_58_Param",
              "groupValue": "Systolic Blood Pressure (mmHg)"
            },
            {
              "groupingId": "AnlsGrouping_60_Aval",
              "groupValue": "Week 2"
            }
          ],
          "rawValue": "135.17131474",
          "formattedValue": "135.2"
        },
        {
          "operationId": "Mth_06_02_Mean",
          "resultGroups": [
            {
              "groupingId": "AnlsGrouping_57_Trt01An",
              "groupId": "AnlsGrouping_57_Trt01An_01"
            },
            {
              "groupingId": "AnlsGrouping_58_Param",
              "groupValue": "Systolic Blood Pressure (mmHg)"
            },
            {
              "groupingId": "AnlsGrouping_60_Aval",
              "groupValue": "Week 20"
            }
          ],
          "rawValue": "128.98888889",
          "formattedValue": "129.0"
        },
        {
          "operationId": "Mth_06_02_Mean",
          "resultGroups": [
            {
              "groupingId": "AnlsGrouping_57_Trt01An",
              "groupId": "AnlsGrouping_57_Trt01An_01"
            },
            {
              "groupingId": "AnlsGrouping_58_Param",
              "groupValue": "Systolic Blood Pressure (mmHg)"
            },
            {
              "groupingId": "AnlsGrouping_60_Aval",
              "groupValue": "Week 24"
            }
          ],
          "rawValue": "132.02469136",
          "formattedValue": "132.0"
        },
        {
          "operationId": "Mth_06_02_Mean",
          "resultGroups": [
            {
              "groupingId": "AnlsGrouping_57_Trt01An",
              "groupId": "AnlsGrouping_57_Trt01An_01"
            },
            {
              "groupingId": "AnlsGrouping_58_Param",
              "groupValue": "Systolic Blood Pressure (mmHg)"
            },
            {
              "groupingId": "AnlsGrouping_60_Aval",
              "groupValue": "Week 26"
            }
          ],
          "rawValue": "129.38666667",
          "formattedValue": "129.4"
        },
        {
          "operationId": "Mth_06_02_Mean",
          "resultGroups": [
            {
              "groupingId": "AnlsGrouping_57_Trt01An",
              "groupId": "AnlsGrouping_57_Trt01An_01"
            },
            {
              "groupingId": "AnlsGrouping_58_Param",
              "groupValue": "Systolic Blood Pressure (mmHg)"
            },
            {
              "groupingId": "AnlsGrouping_60_Aval",
              "groupValue": "Week 4"
            }
          ],
          "rawValue": "135.38888889",
          "formattedValue": "135.4"
        },
        {
          "operationId": "Mth_06_02_Mean",
          "resultGroups": [
            {
              "groupingId": "AnlsGrouping_57_Trt01An",
              "groupId": "AnlsGrouping_57_Trt01An_01"
            },
            {
              "groupingId": "AnlsGrouping_58_Param",
              "groupValue": "Systolic Blood Pressure (mmHg)"
            },
            {
              "groupingId": "AnlsGrouping_60_Aval",
              "groupValue": "Week 6"
            }
          ],
          "rawValue": "134.90769231",
          "formattedValue": "134.9"
        },
        {
          "operationId": "Mth_06_02_Mean",
          "resultGroups": [
            {
              "groupingId": "AnlsGrouping_57_Trt01An",
              "groupId": "AnlsGrouping_57_Trt01An_01"
            },
            {
              "groupingId": "AnlsGrouping_58_Param",
              "groupValue": "Systolic Blood Pressure (mmHg)"
            },
            {
              "groupingId": "AnlsGrouping_60_Aval",
              "groupValue": "Week 8"
            }
          ],
          "rawValue": "134.92222222",
          "formattedValue": "134.9"
        },
        {
          "operationId": "Mth_06_02_Mean",
          "resultGroups": [
            {
              "groupingId": "AnlsGrouping_57_Trt01An",
              "groupId": "AnlsGrouping_57_Trt01An_01"
            },
            {
              "groupingId": "AnlsGrouping_58_Param",
              "groupValue": "Temperature (C)"
            },
            {
              "groupingId": "AnlsGrouping_60_Aval",
              "groupValue": "End of Treatment"
            }
          ],
          "rawValue": "36.576388889",
          "formattedValue": "36.576"
        },
        {
          "operationId": "Mth_06_02_Mean",
          "resultGroups": [
            {
              "groupingId": "AnlsGrouping_57_Trt01An",
              "groupId": "AnlsGrouping_57_Trt01An_01"
            },
            {
              "groupingId": "AnlsGrouping_58_Param",
              "groupValue": "Temperature (C)"
            },
            {
              "groupingId": "AnlsGrouping_60_Aval",
              "groupValue": "Week 12"
            }
          ],
          "rawValue": "36.625192308",
          "formattedValue": "36.625"
        },
        {
          "operationId": "Mth_06_02_Mean",
          "resultGroups": [
            {
              "groupingId": "AnlsGrouping_57_Trt01An",
              "groupId": "AnlsGrouping_57_Trt01An_01"
            },
            {
              "groupingId": "AnlsGrouping_58_Param",
              "groupValue": "Temperature (C)"
            },
            {
              "groupingId": "AnlsGrouping_60_Aval",
              "groupValue": "Week 16"
            }
          ],
          "rawValue": "36.55195122",
          "formattedValue": "36.552"
        },
        {
          "operationId": "Mth_06_02_Mean",
          "resultGroups": [
            {
              "groupingId": "AnlsGrouping_57_Trt01An",
              "groupId": "AnlsGrouping_57_Trt01An_01"
            },
            {
              "groupingId": "AnlsGrouping_58_Param",
              "groupValue": "Temperature (C)"
            },
            {
              "groupingId": "AnlsGrouping_60_Aval",
              "groupValue": "Week 2"
            }
          ],
          "rawValue": "36.522261905",
          "formattedValue": "36.522"
        },
        {
          "operationId": "Mth_06_02_Mean",
          "resultGroups": [
            {
              "groupingId": "AnlsGrouping_57_Trt01An",
              "groupId": "AnlsGrouping_57_Trt01An_01"
            },
            {
              "groupingId": "AnlsGrouping_58_Param",
              "groupValue": "Temperature (C)"
            },
            {
              "groupingId": "AnlsGrouping_60_Aval",
              "groupValue": "Week 20"
            }
          ],
          "rawValue": "36.675666667",
          "formattedValue": "36.676"
        },
        {
          "operationId": "Mth_06_02_Mean",
          "resultGroups": [
            {
              "groupingId": "AnlsGrouping_57_Trt01An",
              "groupId": "AnlsGrouping_57_Trt01An_01"
            },
            {
              "groupingId": "AnlsGrouping_58_Param",
              "groupValue": "Temperature (C)"
            },
            {
              "groupingId": "AnlsGrouping_60_Aval",
              "groupValue": "Week 24"
            }
          ],
          "rawValue": "36.656153846",
          "formattedValue": "36.656"
        },
        {
          "operationId": "Mth_06_02_Mean",
          "resultGroups": [
            {
              "groupingId": "AnlsGrouping_57_Trt01An",
              "groupId": "AnlsGrouping_57_Trt01An_01"
            },
            {
              "groupingId": "AnlsGrouping_58_Param",
              "groupValue": "Temperature (C)"
            },
            {
              "groupingId": "AnlsGrouping_60_Aval",
              "groupValue": "Week 26"
            }
          ],
          "rawValue": "36.590416667",
          "formattedValue": "36.590"
        },
        {
          "operationId": "Mth_06_02_Mean",
          "resultGroups": [
            {
              "groupingId": "AnlsGrouping_57_Trt01An",
              "groupId": "AnlsGrouping_57_Trt01An_01"
            },
            {
              "groupingId": "AnlsGrouping_58_Param",
              "groupValue": "Temperature (C)"
            },
            {
              "groupingId": "AnlsGrouping_60_Aval",
              "groupValue": "Week 4"
            }
          ],
          "rawValue": "36.49625",
          "formattedValue": "36.496"
        },
        {
          "operationId": "Mth_06_02_Mean",
          "resultGroups": [
            {
              "groupingId": "AnlsGrouping_57_Trt01An",
              "groupId": "AnlsGrouping_57_Trt01An_01"
            },
            {
              "groupingId": "AnlsGrouping_58_Param",
              "groupValue": "Temperature (C)"
            },
            {
              "groupingId": "AnlsGrouping_60_Aval",
              "groupValue": "Week 6"
            }
          ],
          "rawValue": "36.530461538",
          "formattedValue": "36.530"
        },
        {
          "operationId": "Mth_06_02_Mean",
          "resultGroups": [
            {
              "groupingId": "AnlsGrouping_57_Trt01An",
              "groupId": "AnlsGrouping_57_Trt01An_01"
            },
            {
              "groupingId": "AnlsGrouping_58_Param",
              "groupValue": "Temperature (C)"
            },
            {
              "groupingId": "AnlsGrouping_60_Aval",
              "groupValue": "Week 8"
            }
          ],
          "rawValue": "36.583898305",
          "formattedValue": "36.584"
        },
        {
          "operationId": "Mth_06_02_Mean",
          "resultGroups": [
            {
              "groupingId": "AnlsGrouping_57_Trt01An",
              "groupId": "AnlsGrouping_57_Trt01An_01"
            },
            {
              "groupingId": "AnlsGrouping_58_Param",
              "groupValue": "Weight (kg)"
            },
            {
              "groupingId": "AnlsGrouping_60_Aval",
              "groupValue": "End of Treatment"
            }
          ],
          "rawValue": "66.780277778",
          "formattedValue": "66.780"
        },
        {
          "operationId": "Mth_06_02_Mean",
          "resultGroups": [
            {
              "groupingId": "AnlsGrouping_57_Trt01An",
              "groupId": "AnlsGrouping_57_Trt01An_01"
            },
            {
              "groupingId": "AnlsGrouping_58_Param",
              "groupValue": "Weight (kg)"
            },
            {
              "groupingId": "AnlsGrouping_60_Aval",
              "groupValue": "Week 12"
            }
          ],
          "rawValue": "67.024230769",
          "formattedValue": "67.024"
        },
        {
          "operationId": "Mth_06_02_Mean",
          "resultGroups": [
            {
              "groupingId": "AnlsGrouping_57_Trt01An",
              "groupId": "AnlsGrouping_57_Trt01An_01"
            },
            {
              "groupingId": "AnlsGrouping_58_Param",
              "groupValue": "Weight (kg)"
            },
            {
              "groupingId": "AnlsGrouping_60_Aval",
              "groupValue": "Week 16"
            }
          ],
          "rawValue": "68.099285714",
          "formattedValue": "68.099"
        },
        {
          "operationId": "Mth_06_02_Mean",
          "resultGroups": [
            {
              "groupingId": "AnlsGrouping_57_Trt01An",
              "groupId": "AnlsGrouping_57_Trt01An_01"
            },
            {
              "groupingId": "AnlsGrouping_58_Param",
              "groupValue": "Weight (kg)"
            },
            {
              "groupingId": "AnlsGrouping_60_Aval",
              "groupValue": "Week 2"
            }
          ],
          "rawValue": "67.369047619",
          "formattedValue": "67.369"
        },
        {
          "operationId": "Mth_06_02_Mean",
          "resultGroups": [
            {
              "groupingId": "AnlsGrouping_57_Trt01An",
              "groupId": "AnlsGrouping_57_Trt01An_01"
            },
            {
              "groupingId": "AnlsGrouping_58_Param",
              "groupValue": "Weight (kg)"
            },
            {
              "groupingId": "AnlsGrouping_60_Aval",
              "groupValue": "Week 20"
            }
          ],
          "rawValue": "67.250645161",
          "formattedValue": "67.251"
        },
        {
          "operationId": "Mth_06_02_Mean",
          "resultGroups": [
            {
              "groupingId": "AnlsGrouping_57_Trt01An",
              "groupId": "AnlsGrouping_57_Trt01An_01"
            },
            {
              "groupingId": "AnlsGrouping_58_Param",
              "groupValue": "Weight (kg)"
            },
            {
              "groupingId": "AnlsGrouping_60_Aval",
              "groupValue": "Week 24"
            }
          ],
          "rawValue": "67.433703704",
          "formattedValue": "67.434"
        },
        {
          "operationId": "Mth_06_02_Mean",
          "resultGroups": [
            {
              "groupingId": "AnlsGrouping_57_Trt01An",
              "groupId": "AnlsGrouping_57_Trt01An_01"
            },
            {
              "groupingId": "AnlsGrouping_58_Param",
              "groupValue": "Weight (kg)"
            },
            {
              "groupingId": "AnlsGrouping_60_Aval",
              "groupValue": "Week 26"
            }
          ],
          "rawValue": "67.0516",
          "formattedValue": "67.052"
        },
        {
          "operationId": "Mth_06_02_Mean",
          "resultGroups": [
            {
              "groupingId": "AnlsGrouping_57_Trt01An",
              "groupId": "AnlsGrouping_57_Trt01An_01"
            },
            {
              "groupingId": "AnlsGrouping_58_Param",
              "groupValue": "Weight (kg)"
            },
            {
              "groupingId": "AnlsGrouping_60_Aval",
              "groupValue": "Week 4"
            }
          ],
          "rawValue": "67.340833333",
          "formattedValue": "67.341"
        },
        {
          "operationId": "Mth_06_02_Mean",
          "resultGroups": [
            {
              "groupingId": "AnlsGrouping_57_Trt01An",
              "groupId": "AnlsGrouping_57_Trt01An_01"
            },
            {
              "groupingId": "AnlsGrouping_58_Param",
              "groupValue": "Weight (kg)"
            },
            {
              "groupingId": "AnlsGrouping_60_Aval",
              "groupValue": "Week 6"
            }
          ],
          "rawValue": "67.187076923",
          "formattedValue": "67.187"
        },
        {
          "operationId": "Mth_06_02_Mean",
          "resultGroups": [
            {
              "groupingId": "AnlsGrouping_57_Trt01An",
              "groupId": "AnlsGrouping_57_Trt01An_01"
            },
            {
              "groupingId": "AnlsGrouping_58_Param",
              "groupValue": "Weight (kg)"
            },
            {
              "groupingId": "AnlsGrouping_60_Aval",
              "groupValue": "Week 8"
            }
          ],
          "rawValue": "66.694333333",
          "formattedValue": "66.694"
        },
        {
          "operationId": "Mth_06_02_Mean",
          "resultGroups": [
            {
              "groupingId": "AnlsGrouping_57_Trt01An",
              "groupId": "AnlsGrouping_57_Trt01An_02"
            },
            {
              "groupingId": "AnlsGrouping_58_Param",
              "groupValue": "Diastolic Blood Pressure (mmHg)"
            },
            {
              "groupingId": "AnlsGrouping_60_Aval",
              "groupValue": "End of Treatment"
            }
          ],
          "rawValue": "75.141552511",
          "formattedValue": "75.1"
        },
        {
          "operationId": "Mth_06_02_Mean",
          "resultGroups": [
            {
              "groupingId": "AnlsGrouping_57_Trt01An",
              "groupId": "AnlsGrouping_57_Trt01An_02"
            },
            {
              "groupingId": "AnlsGrouping_58_Param",
              "groupValue": "Diastolic Blood Pressure (mmHg)"
            },
            {
              "groupingId": "AnlsGrouping_60_Aval",
              "groupValue": "Week 12"
            }
          ],
          "rawValue": "74.606666667",
          "formattedValue": "74.6"
        },
        {
          "operationId": "Mth_06_02_Mean",
          "resultGroups": [
            {
              "groupingId": "AnlsGrouping_57_Trt01An",
              "groupId": "AnlsGrouping_57_Trt01An_02"
            },
            {
              "groupingId": "AnlsGrouping_58_Param",
              "groupValue": "Diastolic Blood Pressure (mmHg)"
            },
            {
              "groupingId": "AnlsGrouping_60_Aval",
              "groupValue": "Week 16"
            }
          ],
          "rawValue": "76.027027027",
          "formattedValue": "76.0"
        },
        {
          "operationId": "Mth_06_02_Mean",
          "resultGroups": [
            {
              "groupingId": "AnlsGrouping_57_Trt01An",
              "groupId": "AnlsGrouping_57_Trt01An_02"
            },
            {
              "groupingId": "AnlsGrouping_58_Param",
              "groupValue": "Diastolic Blood Pressure (mmHg)"
            },
            {
              "groupingId": "AnlsGrouping_60_Aval",
              "groupValue": "Week 2"
            }
          ],
          "rawValue": "76.427983539",
          "formattedValue": "76.4"
        },
        {
          "operationId": "Mth_06_02_Mean",
          "resultGroups": [
            {
              "groupingId": "AnlsGrouping_57_Trt01An",
              "groupId": "AnlsGrouping_57_Trt01An_02"
            },
            {
              "groupingId": "AnlsGrouping_58_Param",
              "groupValue": "Diastolic Blood Pressure (mmHg)"
            },
            {
              "groupingId": "AnlsGrouping_60_Aval",
              "groupValue": "Week 20"
            }
          ],
          "rawValue": "74.072916667",
          "formattedValue": "74.1"
        },
        {
          "operationId": "Mth_06_02_Mean",
          "resultGroups": [
            {
              "groupingId": "AnlsGrouping_57_Trt01An",
              "groupId": "AnlsGrouping_57_Trt01An_02"
            },
            {
              "groupingId": "AnlsGrouping_58_Param",
              "groupValue": "Diastolic Blood Pressure (mmHg)"
            },
            {
              "groupingId": "AnlsGrouping_60_Aval",
              "groupValue": "Week 24"
            }
          ],
          "rawValue": "74.933333333",
          "formattedValue": "74.9"
        },
        {
          "operationId": "Mth_06_02_Mean",
          "resultGroups": [
            {
              "groupingId": "AnlsGrouping_57_Trt01An",
              "groupId": "AnlsGrouping_57_Trt01An_02"
            },
            {
              "groupingId": "AnlsGrouping_58_Param",
              "groupValue": "Diastolic Blood Pressure (mmHg)"
            },
            {
              "groupingId": "AnlsGrouping_60_Aval",
              "groupValue": "Week 26"
            }
          ],
          "rawValue": "74.547619048",
          "formattedValue": "74.5"
        },
        {
          "operationId": "Mth_06_02_Mean",
          "resultGroups": [
            {
              "groupingId": "AnlsGrouping_57_Trt01An",
              "groupId": "AnlsGrouping_57_Trt01An_02"
            },
            {
              "groupingId": "AnlsGrouping_58_Param",
              "groupValue": "Diastolic Blood Pressure (mmHg)"
            },
            {
              "groupingId": "AnlsGrouping_60_Aval",
              "groupValue": "Week 4"
            }
          ],
          "rawValue": "76.799086758",
          "formattedValue": "76.8"
        },
        {
          "operationId": "Mth_06_02_Mean",
          "resultGroups": [
            {
              "groupingId": "AnlsGrouping_57_Trt01An",
              "groupId": "AnlsGrouping_57_Trt01An_02"
            },
            {
              "groupingId": "AnlsGrouping_58_Param",
              "groupValue": "Diastolic Blood Pressure (mmHg)"
            },
            {
              "groupingId": "AnlsGrouping_60_Aval",
              "groupValue": "Week 6"
            }
          ],
          "rawValue": "75.256157635",
          "formattedValue": "75.3"
        },
        {
          "operationId": "Mth_06_02_Mean",
          "resultGroups": [
            {
              "groupingId": "AnlsGrouping_57_Trt01An",
              "groupId": "AnlsGrouping_57_Trt01An_02"
            },
            {
              "groupingId": "AnlsGrouping_58_Param",
              "groupValue": "Diastolic Blood Pressure (mmHg)"
            },
            {
              "groupingId": "AnlsGrouping_60_Aval",
              "groupValue": "Week 8"
            }
          ],
          "rawValue": "77.369047619",
          "formattedValue": "77.4"
        },
        {
          "operationId": "Mth_06_02_Mean",
          "resultGroups": [
            {
              "groupingId": "AnlsGrouping_57_Trt01An",
              "groupId": "AnlsGrouping_57_Trt01An_02"
            },
            {
              "groupingId": "AnlsGrouping_58_Param",
              "groupValue": "Pulse Rate (beats/min)"
            },
            {
              "groupingId": "AnlsGrouping_60_Aval",
              "groupValue": "End of Treatment"
            }
          ],
          "rawValue": "70.889908257",
          "formattedValue": "70.9"
        },
        {
          "operationId": "Mth_06_02_Mean",
          "resultGroups": [
            {
              "groupingId": "AnlsGrouping_57_Trt01An",
              "groupId": "AnlsGrouping_57_Trt01An_02"
            },
            {
              "groupingId": "AnlsGrouping_58_Param",
              "groupValue": "Pulse Rate (beats/min)"
            },
            {
              "groupingId": "AnlsGrouping_60_Aval",
              "groupValue": "Week 12"
            }
          ],
          "rawValue": "73.166666667",
          "formattedValue": "73.2"
        },
        {
          "operationId": "Mth_06_02_Mean",
          "resultGroups": [
            {
              "groupingId": "AnlsGrouping_57_Trt01An",
              "groupId": "AnlsGrouping_57_Trt01An_02"
            },
            {
              "groupingId": "AnlsGrouping_58_Param",
              "groupValue": "Pulse Rate (beats/min)"
            },
            {
              "groupingId": "AnlsGrouping_60_Aval",
              "groupValue": "Week 16"
            }
          ],
          "rawValue": "73.198198198",
          "formattedValue": "73.2"
        },
        {
          "operationId": "Mth_06_02_Mean",
          "resultGroups": [
            {
              "groupingId": "AnlsGrouping_57_Trt01An",
              "groupId": "AnlsGrouping_57_Trt01An_02"
            },
            {
              "groupingId": "AnlsGrouping_58_Param",
              "groupValue": "Pulse Rate (beats/min)"
            },
            {
              "groupingId": "AnlsGrouping_60_Aval",
              "groupValue": "Week 2"
            }
          ],
          "rawValue": "76.176954733",
          "formattedValue": "76.2"
        },
        {
          "operationId": "Mth_06_02_Mean",
          "resultGroups": [
            {
              "groupingId": "AnlsGrouping_57_Trt01An",
              "groupId": "AnlsGrouping_57_Trt01An_02"
            },
            {
              "groupingId": "AnlsGrouping_58_Param",
              "groupValue": "Pulse Rate (beats/min)"
            },
            {
              "groupingId": "AnlsGrouping_60_Aval",
              "groupValue": "Week 20"
            }
          ],
          "rawValue": "76.739583333",
          "formattedValue": "76.7"
        },
        {
          "operationId": "Mth_06_02_Mean",
          "resultGroups": [
            {
              "groupingId": "AnlsGrouping_57_Trt01An",
              "groupId": "AnlsGrouping_57_Trt01An_02"
            },
            {
              "groupingId": "AnlsGrouping_58_Param",
              "groupValue": "Pulse Rate (beats/min)"
            },
            {
              "groupingId": "AnlsGrouping_60_Aval",
              "groupValue": "Week 24"
            }
          ],
          "rawValue": "71.688888889",
          "formattedValue": "71.7"
        },
        {
          "operationId": "Mth_06_02_Mean",
          "resultGroups": [
            {
              "groupingId": "AnlsGrouping_57_Trt01An",
              "groupId": "AnlsGrouping_57_Trt01An_02"
            },
            {
              "groupingId": "AnlsGrouping_58_Param",
              "groupValue": "Pulse Rate (beats/min)"
            },
            {
              "groupingId": "AnlsGrouping_60_Aval",
              "groupValue": "Week 26"
            }
          ],
          "rawValue": "73.44047619",
          "formattedValue": "73.4"
        },
        {
          "operationId": "Mth_06_02_Mean",
          "resultGroups": [
            {
              "groupingId": "AnlsGrouping_57_Trt01An",
              "groupId": "AnlsGrouping_57_Trt01An_02"
            },
            {
              "groupingId": "AnlsGrouping_58_Param",
              "groupValue": "Pulse Rate (beats/min)"
            },
            {
              "groupingId": "AnlsGrouping_60_Aval",
              "groupValue": "Week 4"
            }
          ],
          "rawValue": "75.926940639",
          "formattedValue": "75.9"
        },
        {
          "operationId": "Mth_06_02_Mean",
          "resultGroups": [
            {
              "groupingId": "AnlsGrouping_57_Trt01An",
              "groupId": "AnlsGrouping_57_Trt01An_02"
            },
            {
              "groupingId": "AnlsGrouping_58_Param",
              "groupValue": "Pulse Rate (beats/min)"
            },
            {
              "groupingId": "AnlsGrouping_60_Aval",
              "groupValue": "Week 6"
            }
          ],
          "rawValue": "74.270935961",
          "formattedValue": "74.3"
        },
        {
          "operationId": "Mth_06_02_Mean",
          "resultGroups": [
            {
              "groupingId": "AnlsGrouping_57_Trt01An",
              "groupId": "AnlsGrouping_57_Trt01An_02"
            },
            {
              "groupingId": "AnlsGrouping_58_Param",
              "groupValue": "Pulse Rate (beats/min)"
            },
            {
              "groupingId": "AnlsGrouping_60_Aval",
              "groupValue": "Week 8"
            }
          ],
          "rawValue": "74.041666667",
          "formattedValue": "74.0"
        },
        {
          "operationId": "Mth_06_02_Mean",
          "resultGroups": [
            {
              "groupingId": "AnlsGrouping_57_Trt01An",
              "groupId": "AnlsGrouping_57_Trt01An_02"
            },
            {
              "groupingId": "AnlsGrouping_58_Param",
              "groupValue": "Systolic Blood Pressure (mmHg)"
            },
            {
              "groupingId": "AnlsGrouping_60_Aval",
              "groupValue": "End of Treatment"
            }
          ],
          "rawValue": "128.77522936",
          "formattedValue": "128.8"
        },
        {
          "operationId": "Mth_06_02_Mean",
          "resultGroups": [
            {
              "groupingId": "AnlsGrouping_57_Trt01An",
              "groupId": "AnlsGrouping_57_Trt01An_02"
            },
            {
              "groupingId": "AnlsGrouping_58_Param",
              "groupValue": "Systolic Blood Pressure (mmHg)"
            },
            {
              "groupingId": "AnlsGrouping_60_Aval",
              "groupValue": "Week 12"
            }
          ],
          "rawValue": "130.28",
          "formattedValue": "130.3"
        },
        {
          "operationId": "Mth_06_02_Mean",
          "resultGroups": [
            {
              "groupingId": "AnlsGrouping_57_Trt01An",
              "groupId": "AnlsGrouping_57_Trt01An_02"
            },
            {
              "groupingId": "AnlsGrouping_58_Param",
              "groupValue": "Systolic Blood Pressure (mmHg)"
            },
            {
              "groupingId": "AnlsGrouping_60_Aval",
              "groupValue": "Week 16"
            }
          ],
          "rawValue": "133.65765766",
          "formattedValue": "133.7"
        },
        {
          "operationId": "Mth_06_02_Mean",
          "resultGroups": [
            {
              "groupingId": "AnlsGrouping_57_Trt01An",
              "groupId": "AnlsGrouping_57_Trt01An_02"
            },
            {
              "groupingId": "AnlsGrouping_58_Param",
              "groupValue": "Systolic Blood Pressure (mmHg)"
            },
            {
              "groupingId": "AnlsGrouping_60_Aval",
              "groupValue": "Week 2"
            }
          ],
          "rawValue": "132.32921811",
          "formattedValue": "132.3"
        },
        {
          "operationId": "Mth_06_02_Mean",
          "resultGroups": [
            {
              "groupingId": "AnlsGrouping_57_Trt01An",
              "groupId": "AnlsGrouping_57_Trt01An_02"
            },
            {
              "groupingId": "AnlsGrouping_58_Param",
              "groupValue": "Systolic Blood Pressure (mmHg)"
            },
            {
              "groupingId": "AnlsGrouping_60_Aval",
              "groupValue": "Week 20"
            }
          ],
          "rawValue": "127.07291667",
          "formattedValue": "127.1"
        },
        {
          "operationId": "Mth_06_02_Mean",
          "resultGroups": [
            {
              "groupingId": "AnlsGrouping_57_Trt01An",
              "groupId": "AnlsGrouping_57_Trt01An_02"
            },
            {
              "groupingId": "AnlsGrouping_58_Param",
              "groupValue": "Systolic Blood Pressure (mmHg)"
            },
            {
              "groupingId": "AnlsGrouping_60_Aval",
              "groupValue": "Week 24"
            }
          ],
          "rawValue": "130.62222222",
          "formattedValue": "130.6"
        },
        {
          "operationId": "Mth_06_02_Mean",
          "resultGroups": [
            {
              "groupingId": "AnlsGrouping_57_Trt01An",
              "groupId": "AnlsGrouping_57_Trt01An_02"
            },
            {
              "groupingId": "AnlsGrouping_58_Param",
              "groupValue": "Systolic Blood Pressure (mmHg)"
            },
            {
              "groupingId": "AnlsGrouping_60_Aval",
              "groupValue": "Week 26"
            }
          ],
          "rawValue": "124.13095238",
          "formattedValue": "124.1"
        },
        {
          "operationId": "Mth_06_02_Mean",
          "resultGroups": [
            {
              "groupingId": "AnlsGrouping_57_Trt01An",
              "groupId": "AnlsGrouping_57_Trt01An_02"
            },
            {
              "groupingId": "AnlsGrouping_58_Param",
              "groupValue": "Systolic Blood Pressure (mmHg)"
            },
            {
              "groupingId": "AnlsGrouping_60_Aval",
              "groupValue": "Week 4"
            }
          ],
          "rawValue": "132.18721461",
          "formattedValue": "132.2"
        },
        {
          "operationId": "Mth_06_02_Mean",
          "resultGroups": [
            {
              "groupingId": "AnlsGrouping_57_Trt01An",
              "groupId": "AnlsGrouping_57_Trt01An_02"
            },
            {
              "groupingId": "AnlsGrouping_58_Param",
              "groupValue": "Systolic Blood Pressure (mmHg)"
            },
            {
              "groupingId": "AnlsGrouping_60_Aval",
              "groupValue": "Week 6"
            }
          ],
          "rawValue": "129.93103448",
          "formattedValue": "129.9"
        },
        {
          "operationId": "Mth_06_02_Mean",
          "resultGroups": [
            {
              "groupingId": "AnlsGrouping_57_Trt01An",
              "groupId": "AnlsGrouping_57_Trt01An_02"
            },
            {
              "groupingId": "AnlsGrouping_58_Param",
              "groupValue": "Systolic Blood Pressure (mmHg)"
            },
            {
              "groupingId": "AnlsGrouping_60_Aval",
              "groupValue": "Week 8"
            }
          ],
          "rawValue": "135.05952381",
          "formattedValue": "135.1"
        },
        {
          "operationId": "Mth_06_02_Mean",
          "resultGroups": [
            {
              "groupingId": "AnlsGrouping_57_Trt01An",
              "groupId": "AnlsGrouping_57_Trt01An_02"
            },
            {
              "groupingId": "AnlsGrouping_58_Param",
              "groupValue": "Temperature (C)"
            },
            {
              "groupingId": "AnlsGrouping_60_Aval",
              "groupValue": "End of Treatment"
            }
          ],
          "rawValue": "36.64109589",
          "formattedValue": "36.641"
        },
        {
          "operationId": "Mth_06_02_Mean",
          "resultGroups": [
            {
              "groupingId": "AnlsGrouping_57_Trt01An",
              "groupId": "AnlsGrouping_57_Trt01An_02"
            },
            {
              "groupingId": "AnlsGrouping_58_Param",
              "groupValue": "Temperature (C)"
            },
            {
              "groupingId": "AnlsGrouping_60_Aval",
              "groupValue": "Week 12"
            }
          ],
          "rawValue": "36.6626",
          "formattedValue": "36.663"
        },
        {
          "operationId": "Mth_06_02_Mean",
          "resultGroups": [
            {
              "groupingId": "AnlsGrouping_57_Trt01An",
              "groupId": "AnlsGrouping_57_Trt01An_02"
            },
            {
              "groupingId": "AnlsGrouping_58_Param",
              "groupValue": "Temperature (C)"
            },
            {
              "groupingId": "AnlsGrouping_60_Aval",
              "groupValue": "Week 16"
            }
          ],
          "rawValue": "36.628918919",
          "formattedValue": "36.629"
        },
        {
          "operationId": "Mth_06_02_Mean",
          "resultGroups": [
            {
              "groupingId": "AnlsGrouping_57_Trt01An",
              "groupId": "AnlsGrouping_57_Trt01An_02"
            },
            {
              "groupingId": "AnlsGrouping_58_Param",
              "groupValue": "Temperature (C)"
            },
            {
              "groupingId": "AnlsGrouping_60_Aval",
              "groupValue": "Week 2"
            }
          ],
          "rawValue": "36.56962963",
          "formattedValue": "36.570"
        },
        {
          "operationId": "Mth_06_02_Mean",
          "resultGroups": [
            {
              "groupingId": "AnlsGrouping_57_Trt01An",
              "groupId": "AnlsGrouping_57_Trt01An_02"
            },
            {
              "groupingId": "AnlsGrouping_58_Param",
              "groupValue": "Temperature (C)"
            },
            {
              "groupingId": "AnlsGrouping_60_Aval",
              "groupValue": "Week 20"
            }
          ],
          "rawValue": "36.69875",
          "formattedValue": "36.699"
        },
        {
          "operationId": "Mth_06_02_Mean",
          "resultGroups": [
            {
              "groupingId": "AnlsGrouping_57_Trt01An",
              "groupId": "AnlsGrouping_57_Trt01An_02"
            },
            {
              "groupingId": "AnlsGrouping_58_Param",
              "groupValue": "Temperature (C)"
            },
            {
              "groupingId": "AnlsGrouping_60_Aval",
              "groupValue": "Week 24"
            }
          ],
          "rawValue": "36.70862069",
          "formattedValue": "36.709"
        },
        {
          "operationId": "Mth_06_02_Mean",
          "resultGroups": [
            {
              "groupingId": "AnlsGrouping_57_Trt01An",
              "groupId": "AnlsGrouping_57_Trt01An_02"
            },
            {
              "groupingId": "AnlsGrouping_58_Param",
              "groupValue": "Temperature (C)"
            },
            {
              "groupingId": "AnlsGrouping_60_Aval",
              "groupValue": "Week 26"
            }
          ],
          "rawValue": "36.774285714",
          "formattedValue": "36.774"
        },
        {
          "operationId": "Mth_06_02_Mean",
          "resultGroups": [
            {
              "groupingId": "AnlsGrouping_57_Trt01An",
              "groupId": "AnlsGrouping_57_Trt01An_02"
            },
            {
              "groupingId": "AnlsGrouping_58_Param",
              "groupValue": "Temperature (C)"
            },
            {
              "groupingId": "AnlsGrouping_60_Aval",
              "groupValue": "Week 4"
            }
          ],
          "rawValue": "36.646849315",
          "formattedValue": "36.647"
        },
        {
          "operationId": "Mth_06_02_Mean",
          "resultGroups": [
            {
              "groupingId": "AnlsGrouping_57_Trt01An",
              "groupId": "AnlsGrouping_57_Trt01An_02"
            },
            {
              "groupingId": "AnlsGrouping_58_Param",
              "groupValue": "Temperature (C)"
            },
            {
              "groupingId": "AnlsGrouping_60_Aval",
              "groupValue": "Week 6"
            }
          ],
          "rawValue": "36.572941176",
          "formattedValue": "36.573"
        },
        {
          "operationId": "Mth_06_02_Mean",
          "resultGroups": [
            {
              "groupingId": "AnlsGrouping_57_Trt01An",
              "groupId": "AnlsGrouping_57_Trt01An_02"
            },
            {
              "groupingId": "AnlsGrouping_58_Param",
              "groupValue": "Temperature (C)"
            },
            {
              "groupingId": "AnlsGrouping_60_Aval",
              "groupValue": "Week 8"
            }
          ],
          "rawValue": "36.606428571",
          "formattedValue": "36.606"
        },
        {
          "operationId": "Mth_06_02_Mean",
          "resultGroups": [
            {
              "groupingId": "AnlsGrouping_57_Trt01An",
              "groupId": "AnlsGrouping_57_Trt01An_02"
            },
            {
              "groupingId": "AnlsGrouping_58_Param",
              "groupValue": "Weight (kg)"
            },
            {
              "groupingId": "AnlsGrouping_60_Aval",
              "groupValue": "End of Treatment"
            }
          ],
          "rawValue": "69.31",
          "formattedValue": "69.310"
        },
        {
          "operationId": "Mth_06_02_Mean",
          "resultGroups": [
            {
              "groupingId": "AnlsGrouping_57_Trt01An",
              "groupId": "AnlsGrouping_57_Trt01An_02"
            },
            {
              "groupingId": "AnlsGrouping_58_Param",
              "groupValue": "Weight (kg)"
            },
            {
              "groupingId": "AnlsGrouping_60_Aval",
              "groupValue": "Week 12"
            }
          ],
          "rawValue": "70.8208",
          "formattedValue": "70.821"
        },
        {
          "operationId": "Mth_06_02_Mean",
          "resultGroups": [
            {
              "groupingId": "AnlsGrouping_57_Trt01An",
              "groupId": "AnlsGrouping_57_Trt01An_02"
            },
            {
              "groupingId": "AnlsGrouping_58_Param",
              "groupValue": "Weight (kg)"
            },
            {
              "groupingId": "AnlsGrouping_60_Aval",
              "groupValue": "Week 16"
            }
          ],
          "rawValue": "70.583783784",
          "formattedValue": "70.584"
        },
        {
          "operationId": "Mth_06_02_Mean",
          "resultGroups": [
            {
              "groupingId": "AnlsGrouping_57_Trt01An",
              "groupId": "AnlsGrouping_57_Trt01An_02"
            },
            {
              "groupingId": "AnlsGrouping_58_Param",
              "groupValue": "Weight (kg)"
            },
            {
              "groupingId": "AnlsGrouping_60_Aval",
              "groupValue": "Week 2"
            }
          ],
          "rawValue": "70.169382716",
          "formattedValue": "70.169"
        },
        {
          "operationId": "Mth_06_02_Mean",
          "resultGroups": [
            {
              "groupingId": "AnlsGrouping_57_Trt01An",
              "groupId": "AnlsGrouping_57_Trt01An_02"
            },
            {
              "groupingId": "AnlsGrouping_58_Param",
              "groupValue": "Weight (kg)"
            },
            {
              "groupingId": "AnlsGrouping_60_Aval",
              "groupValue": "Week 20"
            }
          ],
          "rawValue": "70.7640625",
          "formattedValue": "70.764"
        },
        {
          "operationId": "Mth_06_02_Mean",
          "resultGroups": [
            {
              "groupingId": "AnlsGrouping_57_Trt01An",
              "groupId": "AnlsGrouping_57_Trt01An_02"
            },
            {
              "groupingId": "AnlsGrouping_58_Param",
              "groupValue": "Weight (kg)"
            },
            {
              "groupingId": "AnlsGrouping_60_Aval",
              "groupValue": "Week 24"
            }
          ],
          "rawValue": "71.072",
          "formattedValue": "71.072"
        },
        {
          "operationId": "Mth_06_02_Mean",
          "resultGroups": [
            {
              "groupingId": "AnlsGrouping_57_Trt01An",
              "groupId": "AnlsGrouping_57_Trt01An_02"
            },
            {
              "groupingId": "AnlsGrouping_58_Param",
              "groupValue": "Weight (kg)"
            },
            {
              "groupingId": "AnlsGrouping_60_Aval",
              "groupValue": "Week 26"
            }
          ],
          "rawValue": "69.984642857",
          "formattedValue": "69.985"
        },
        {
          "operationId": "Mth_06_02_Mean",
          "resultGroups": [
            {
              "groupingId": "AnlsGrouping_57_Trt01An",
              "groupId": "AnlsGrouping_57_Trt01An_02"
            },
            {
              "groupingId": "AnlsGrouping_58_Param",
              "groupValue": "Weight (kg)"
            },
            {
              "groupingId": "AnlsGrouping_60_Aval",
              "groupValue": "Week 4"
            }
          ],
          "rawValue": "70.09375",
          "formattedValue": "70.094"
        },
        {
          "operationId": "Mth_06_02_Mean",
          "resultGroups": [
            {
              "groupingId": "AnlsGrouping_57_Trt01An",
              "groupId": "AnlsGrouping_57_Trt01An_02"
            },
            {
              "groupingId": "AnlsGrouping_58_Param",
              "groupValue": "Weight (kg)"
            },
            {
              "groupingId": "AnlsGrouping_60_Aval",
              "groupValue": "Week 6"
            }
          ],
          "rawValue": "70.46238806",
          "formattedValue": "70.462"
        },
        {
          "operationId": "Mth_06_02_Mean",
          "resultGroups": [
            {
              "groupingId": "AnlsGrouping_57_Trt01An",
              "groupId": "AnlsGrouping_57_Trt01An_02"
            },
            {
              "groupingId": "AnlsGrouping_58_Param",
              "groupValue": "Weight (kg)"
            },
            {
              "groupingId": "AnlsGrouping_60_Aval",
              "groupValue": "Week 8"
            }
          ],
          "rawValue": "71.10625",
          "formattedValue": "71.106"
        },
        {
          "operationId": "Mth_06_02_Mean",
          "resultGroups": [
            {
              "groupingId": "AnlsGrouping_57_Trt01An",
              "groupId": "AnlsGrouping_57_Trt01An_03"
            },
            {
              "groupingId": "AnlsGrouping_58_Param",
              "groupValue": "Diastolic Blood Pressure (mmHg)"
            },
            {
              "groupingId": "AnlsGrouping_60_Aval",
              "groupValue": "End of Treatment"
            }
          ],
          "rawValue": "74.056910569",
          "formattedValue": "74.1"
        },
        {
          "operationId": "Mth_06_02_Mean",
          "resultGroups": [
