{
  "name": "Baseline Demographic and Clinical Characteristics",
  "id": "FDA-DM-T02",
  "mainListOfContents": {
    "name": "List of Planned Analyses",
    "label": "LOPA",
    "contentsList": {
      "listItems": [
        {
          "name": "Baseline Demographic and Clinical Characteristics",
          "level": 1,
          "order": 1,
          "outputId": "Out_01",
          "sublist": {
            "listItems": [
              {
                "name": "    Summary of Subjects by Treatment",
                "level": 2,
                "order": 1,
                "analysisId": "An_01"
              },
              {
                "name": "    Sex, n (%)",
                "level": 2,
                "order": 2,
                "sublist": {
                  "listItems": [
                    {
                      "name": "        Summary of Subjects by Treatment and Sex, n (%)",
                      "level": 3,
                      "order": 1,
                      "analysisId": "An_02"
                    },
                    {
                      "name": "        Summary of Subjects by Sex, n (%)",
                      "level": 3,
                      "order": 2,
                      "analysisId": "An_02_Total"
                    }
                  ]
                }
              },
              {
                "name": "    Age, Years",
                "level": 2,
                "order": 3,
                "sublist": {
                  "listItems": [
                    {
                      "name": "        Summary of Age, Years by Treatment",
                      "level": 3,
                      "order": 1,
                      "analysisId": "An_03"
                    },
                    {
                      "name": "        Summary of Age, Years",
                      "level": 3,
                      "order": 2,
                      "analysisId": "An_03_Total"
                    }
                  ]
                }
              },
              {
                "name": "    Age groups (years), n (%)",
                "level": 2,
                "order": 4,
                "sublist": {
                  "listItems": [
                    {
                      "name": "        Summary of Subjects by Treatment and Age groups (years), n (%)",
                      "level": 3,
                      "order": 1,
                      "analysisId": "An_04"
                    },
                    {
                      "name": "        Summary of Subjects by Age groups (years), n (%)",
                      "level": 3,
                      "order": 2,
                      "analysisId": "An_04_Total"
                    }
                  ]
                }
              },
              {
                "name": "    Race, n (%)",
                "level": 2,
                "order": 5,
                "sublist": {
                  "listItems": [
                    {
                      "name": "        Summary of Subjects by Treatment and Race, n (%)",
                      "level": 3,
                      "order": 1,
                      "analysisId": "An_05"
                    },
                    {
                      "name": "        Summary of Subjects by Race, n (%)",
                      "level": 3,
                      "order": 2,
                      "analysisId": "An_05_Total"
                    }
                  ]
                }
              },
              {
                "name": "    Ethnicity, n (%)",
                "level": 2,
                "order": 6,
                "sublist": {
                  "listItems": [
                    {
                      "name": "        Summary of Subjects by Treatment and Ethnicity, n (%)",
                      "level": 3,
                      "order": 1,
                      "analysisId": "An_06"
                    },
                    {
                      "name": "        Summary of Subjects by Ethnicity, n (%)",
                      "level": 3,
                      "order": 2,
                      "analysisId": "An_06_Total"
                    }
                  ]
                }
              },
              {
                "name": "    Country of participation, n (%)",
                "level": 2,
                "order": 7,
                "sublist": {
                  "listItems": [
                    {
                      "name": "        Summary of Subjects by Treatment and Country of participation, n (%)",
                      "level": 3,
                      "order": 1,
                      "analysisId": "An_07"
                    },
                    {
                      "name": "        Summary of Subjects by Country of participation, n (%)",
                      "level": 3,
                      "order": 2,
                      "analysisId": "An_07_Total"
                    }
                  ]
                }
              },
              {
                "name": "    Baseline Weight (kg)",
                "level": 2,
                "order": 8,
                "sublist": {
                  "listItems": [
                    {
                      "name": "        Summary of Baseline Weight (kg) by Treatment",
                      "level": 3,
                      "order": 1,
                      "analysisId": "An_08"
                    },
                    {
                      "name": "        Summary of Baseline Weight (kg)",
                      "level": 3,
                      "order": 2,
                      "analysisId": "An_08_Total"
                    }
                  ]
                }
              },
              {
                "name": "    Baseline Height (cm)",
                "level": 2,
                "order": 9,
                "sublist": {
                  "listItems": [
                    {
                      "name": "        Summary of Baseline Height (cm) by Treatment",
                      "level": 3,
                      "order": 1,
                      "analysisId": "An_09"
                    },
                    {
                      "name": "        Summary of Baseline Height (cm)",
                      "level": 3,
                      "order": 2,
                      "analysisId": "An_09_Total"
                    }
                  ]
                }
              },
              {
                "name": "    Baseline BMI (kg/m^2)",
                "level": 2,
                "order": 10,
                "sublist": {
                  "listItems": [
                    {
                      "name": "        Summary of Baseline BMI (kg/m^2) by Treatment",
                      "level": 3,
                      "order": 1,
                      "analysisId": "An_10"
                    },
                    {
                      "name": "        Summary of Baseline BMI (kg/m^2)",
                      "level": 3,
                      "order": 2,
                      "analysisId": "An_10_Total"
                    }
                  ]
                }
              },
              {
                "name": "    Duration of Disease (Months)",
                "level": 2,
                "order": 11,
                "sublist": {
                  "listItems": [
                    {
                      "name": "        Summary of Duration of Disease (Months) by Treatment",
                      "level": 3,
                      "order": 1,
                      "analysisId": "An_11"
                    },
                    {
                      "name": "        Summary of Duration of Disease (Months)",
                      "level": 3,
                      "order": 2,
                      "analysisId": "An_11_Total"
                    }
                  ]
                }
              }
            ]
          }
        }
      ]
    }
  },
  "version": 1,
  "otherListsOfContents": [
    {
      "name": "List of Planned Outputs",
      "label": "LOPO",
      "contentsList": {
        "listItems": [
          {
            "name": "Baseline Demographic and Clinical Characteristics",
            "level": 1,
            "order": 1,
            "outputId": "Out_01"
          }
        ]
      }
    }
  ],
  "terminologyExtensions": [
    {
      "id": "TermEx01",
      "sponsorTerms": [
        {
          "id": "TermEx01_01",
          "submissionValue": "POPULATION SUMMARY",
          "description": "Summary statistics describing the study population(s)."
        }
      ],
      "enumeration": "AnalysisPurposeEnum"
    }
  ],
  "analysisOutputCategorizations": [
    {
      "id": "ANSET",
      "categories": [
        {
          "id": "ANSET_01",
          "label": "Safety",
          "subCategorizations": [
            {
              "id": "ANSET_01_ANINT",
              "categories": [
                {
                  "id": "ANSET_01_ANINT_04",
                  "label": "Demographics"
                }
              ],
              "label": "Safety Analysis Of Interest"
            }
          ]
        }
      ],
      "label": "Analysis Sets"
    }
  ],
  "analysisSets": [
    {
      "name": "Safety Population",
      "description": "All patients randomized and known to have taken at least one dose of randomized drug.",
      "id": "AnalysisSet_01",
      "level": 1,
      "order": 1,
      "condition": {
        "dataset": "ADSL",
        "variable": "SAFFL",
        "comparator": "EQ",
        "value": [
          "Y"
        ]
      }
    }
  ],
  "dataSubsets": [
    {
      "name": "Any treatment",
      "id": "Dss_28",
      "level": 1,
      "order": 4,
      "condition": {
        "dataset": "ADSL",
        "variable": "TRT01AN",
        "comparator": "NE"
      }
    }
  ],
  "analysisGroupings": [
    {
      "name": "Treatment",
      "id": "AnlsGrouping_01_Trt01An",
      "dataDriven": false,
      "groupingDataset": "ADSL",
      "groupingVariable": "TRT01AN",
      "groups": [
        {
          "name": "Xanomeline Low Dose \n(N=XX)\nn (%)",
          "id": "AnlsGrouping_01_Trt01An_01",
          "level": 1,
          "order": 1,
          "condition": {
            "dataset": "ADSL",
            "variable": "TRT01AN",
            "comparator": "EQ",
            "value": [
              "1"
            ]
          }
        },
        {
          "name": "Xanomeline High Dose \n(N=XX)\nn (%)",
          "id": "AnlsGrouping_01_Trt01An_02",
          "level": 1,
          "order": 2,
          "condition": {
            "dataset": "ADSL",
            "variable": "TRT01AN",
            "comparator": "EQ",
            "value": [
              "2"
            ]
          }
        },
        {
          "name": "Placebo \n(N=XX)\nn (%)",
          "id": "AnlsGrouping_01_Trt01An_03",
          "level": 1,
          "order": 3,
          "condition": {
            "dataset": "ADSL",
            "variable": "TRT01AN",
            "comparator": "EQ",
            "value": [
              "3"
            ]
          }
        }
      ]
    },
    {
      "name": "Analysis Sex",
      "label": "Sex, n (%)",
      "id": "AnlsGrouping_02_Asex",
      "dataDriven": false,
      "groupingDataset": "ADSL",
      "groupingVariable": "ASEX",
      "groups": [
        {
          "name": "Male",
          "label": "Male",
          "id": "AnlsGrouping_02_Asex_01",
          "level": 1,
          "order": 1,
          "condition": {
            "dataset": "ADSL",
            "variable": "ASEX",
            "comparator": "EQ",
            "value": [
              "Male"
            ]
          }
        },
        {
          "name": "Female",
          "label": "Female",
          "id": "AnlsGrouping_02_Asex_02",
          "level": 1,
          "order": 2,
          "condition": {
            "dataset": "ADSL",
            "variable": "ASEX",
            "comparator": "EQ",
            "value": [
              "Female"
            ]
          }
        },
        {
          "name": "Intersex",
          "label": "Intersex",
          "id": "AnlsGrouping_02_Asex_03",
          "level": 1,
          "order": 3,
          "condition": {
            "dataset": "ADSL",
            "variable": "ASEX",
            "comparator": "EQ",
            "value": [
              "Intersex"
            ]
          }
        },
        {
          "name": "Unknown",
          "label": "Unknown",
          "id": "AnlsGrouping_02_Asex_04",
          "level": 1,
          "order": 4,
          "condition": {
            "dataset": "ADSL",
            "variable": "ASEX",
            "comparator": "EQ",
            "value": [
              "Unknown"
            ]
          }
        }
      ]
    },
    {
      "name": "Pooled Age Group 1 (N)",
      "label": "Age groups (years), n (%)",
      "id": "AnlsGrouping_03_Agegr1N",
      "dataDriven": false,
      "groupingDataset": "ADSL",
      "groupingVariable": "AGEGR1N",
      "groups": [
        {
          "name": "<65",
          "label": "<65",
          "id": "AnlsGrouping_03_Agegr1N_01",
          "level": 1,
          "order": 1,
          "condition": {
            "dataset": "ADSL",
            "variable": "AGEGR1",
            "comparator": "EQ",
            "value": [
              "<65"
            ]
          }
        },
        {
          "name": "65-80",
          "label": "65-80",
          "id": "AnlsGrouping_03_Agegr1N_02",
          "level": 1,
          "order": 2,
          "condition": {
            "dataset": "ADSL",
            "variable": "AGEGR1",
            "comparator": "EQ",
            "value": [
              "65-80"
            ]
          }
        },
        {
          "name": ">80",
          "label": ">80",
          "id": "AnlsGrouping_03_Agegr1N_03",
          "level": 1,
          "order": 3,
          "condition": {
            "dataset": "ADSL",
            "variable": "AGEGR1",
            "comparator": "EQ",
            "value": [
              ">80"
            ]
          }
        }
      ]
    },
    {
      "name": "Analysis Race",
      "label": "Race, n (%)",
      "id": "AnlsGrouping_04_Arace",
      "dataDriven": false,
      "groupingDataset": "ADSL",
      "groupingVariable": "ARACE",
      "groups": [
        {
          "name": "American Indian or Alaska Native",
          "label": "American Indian or Alaska Native",
          "id": "AnlsGrouping_04_Arace_01",
          "level": 1,
          "order": 1,
          "condition": {
            "dataset": "ADSL",
            "variable": "ARACE",
            "comparator": "EQ",
            "value": [
              "American Indian or Alaska Native"
            ]
          }
        },
        {
          "name": "Asian",
          "label": "Asian",
          "id": "AnlsGrouping_04_Arace_02",
          "level": 1,
          "order": 2,
          "condition": {
            "dataset": "ADSL",
            "variable": "ARACE",
            "comparator": "EQ",
            "value": [
              "Asian"
            ]
          }
        },
        {
          "name": "Black or African American",
          "label": "Black or African American",
          "id": "AnlsGrouping_04_Arace_03",
          "level": 1,
          "order": 3,
          "condition": {
            "dataset": "ADSL",
            "variable": "ARACE",
            "comparator": "EQ",
            "value": [
              "Black or African American"
            ]
          }
        },
        {
          "name": "Native Hawaiian or Other Pacific Islander",
          "label": "Native Hawaiian or Other Pacific Islander",
          "id": "AnlsGrouping_04_Arace_04",
          "level": 1,
          "order": 4,
          "condition": {
            "dataset": "ADSL",
            "variable": "ARACE",
            "comparator": "EQ",
            "value": [
              "Native Hawaiian or Other Pacific Islander"
            ]
          }
        },
        {
          "name": "White",
          "label": "White",
          "id": "AnlsGrouping_04_Arace_05",
          "level": 1,
          "order": 5,
          "condition": {
            "dataset": "ADSL",
            "variable": "ARACE",
            "comparator": "EQ",
            "value": [
              "White"
            ]
          }
        },
        {
          "name": "Other",
          "label": "Other",
          "id": "AnlsGrouping_04_Arace_06",
          "level": 1,
          "order": 6,
          "condition": {
            "dataset": "ADSL",
            "variable": "ARACE",
            "comparator": "EQ",
            "value": [
              "Other"
            ]
          }
        },
        {
          "name": "Not Reported",
          "label": "Not Reported",
          "id": "AnlsGrouping_04_Arace_07",
          "level": 1,
          "order": 7,
          "condition": {
            "dataset": "ADSL",
            "variable": "ARACE",
            "comparator": "EQ",
            "value": [
              "Not Reported"
            ]
          }
        },
        {
          "name": "Unknown",
          "label": "Unknown",
          "id": "AnlsGrouping_04_Arace_08",
          "level": 1,
          "order": 8,
          "condition": {
            "dataset": "ADSL",
            "variable": "ARACE",
            "comparator": "EQ",
            "value": [
              "Unknown"
            ]
          }
        }
      ]
    },
    {
      "name": "Analysis Ethnicity",
      "label": "Ethnicity, n (%)",
      "id": "AnlsGrouping_05_Aethnic",
      "dataDriven": false,
      "groupingDataset": "ADSL",
      "groupingVariable": "AETHNIC",
      "groups": [
        {
          "name": "Hispanic or Latino",
          "label": "Hispanic or Latino",
          "id": "AnlsGrouping_05_Aethnic_01",
          "level": 1,
          "order": 1,
          "condition": {
            "dataset": "ADSL",
            "variable": "AETHNIC",
            "comparator": "EQ",
            "value": [
              "Hispanic or Latino"
            ]
          }
        },
        {
          "name": "Not Hispanic or Latino",
          "label": "Not Hispanic or Latino",
          "id": "AnlsGrouping_05_Aethnic_02",
          "level": 1,
          "order": 2,
          "condition": {
            "dataset": "ADSL",
            "variable": "AETHNIC",
            "comparator": "EQ",
            "value": [
              "Not Hispanic or Latino"
            ]
          }
        },
        {
          "name": "Not Reported",
          "label": "Not Reported",
          "id": "AnlsGrouping_05_Aethnic_03",
          "level": 1,
          "order": 3,
          "condition": {
            "dataset": "ADSL",
            "variable": "AETHNIC",
            "comparator": "EQ",
            "value": [
              "Not Reported"
            ]
          }
        },
        {
          "name": "Unknown",
          "label": "Unknown",
          "id": "AnlsGrouping_05_Aethnic_04",
          "level": 1,
          "order": 4,
          "condition": {
            "dataset": "ADSL",
            "variable": "AETHNIC",
            "comparator": "EQ",
            "value": [
              "Unknown"
            ]
          }
        }
      ]
    },
    {
      "name": "Analysis Country of Participation",
      "label": "Country of participation, n (%)",
      "id": "AnlsGrouping_06_Acountry",
      "dataDriven": true,
      "groupingDataset": "ADSL",
      "groupingVariable": "ACOUNTRY"
    }
  ],
  "methods": [
    {
      "name": "bigN",
      "description": "Grouped summary of categorical variable",
      "label": "Descriptive summary statistics across groups for a categorical variable, based on subject occurrence",
      "id": "Mth_00_1",
      "operations": [
        {
          "name": "n",
          "label": "n",
          "id": "Mth_00_1_01_n",
          "order": 1,
          "resultPattern": "(N=XX)"
        }
      ],
      "codeTemplate": {
        "context": "R (siera)",
        "code": "in_data = df2_analysisidhere |>\n    dplyr::select(distinctlisthere) |>\n    unique() |>\n    dplyr::mutate(dummy = 'dummyvar')\n\ndf3_analysisidhere <-\n  cards::ard_tabulate(\n    data = in_data,\n    by = c(byvarshere),\n    variables = dummy\n  ) |>\ndplyr::filter(stat_name == 'n') |>\n dplyr::mutate(operationid = 'opid1here')",
        "parameters": [
          {
            "name": "distinctlisthere",
            "description": "distinct list of grouping variables and analysis variable",
            "valueSource": "distinct_list"
          },
          {
            "name": "opid1here",
            "description": "operation 1 id",
            "valueSource": "operation_1"
          },
          {
            "name": "byvarshere",
            "description": "by variables list",
            "valueSource": "by_listc"
          }
        ]
      }
    },
    {
      "name": "Summary by group of a categorical variable",
      "description": "Descriptive summary statistics across groups for a categorical variable, based on subject occurrence",
      "label": "Grouped summary of categorical variable",
      "id": "Mth_03",
      "operations": [
        {
          "name": "n",
          "label": "n",
          "id": "Mth_03_01_n",
          "order": 1,
          "resultPattern": "XX"
        },
        {
          "name": "%",
          "label": "%",
          "id": "Mth_03_02_%",
          "order": 2,
          "referencedOperationRelationships": [
            {
              "id": "Mth_03_pct_NUM",
              "referencedOperationRole": {
                "controlledTerm": "NUMERATOR"
              },
              "operationId": "Mth_03_01_n",
              "description": "The numerator for the calculation of the percentage."
            },
            {
              "id": "Mth_03_pct_DEN",
              "referencedOperationRole": {
                "controlledTerm": "DENOMINATOR"
              },
              "operationId": "Mth_00_1_01_n",
              "description": "The denominator for the calculation of the percentage."
            }
          ],
          "resultPattern": "(XX.X)"
        }
      ],
      "codeTemplate": {
        "context": "R (siera)",
        "code": "in_data = df2_analysisidhere |>\n    dplyr::select(distinctlisthere) |>\n    unique()\n\ndf3_analysisidhere <-\n  cards::ard_tabulate(\n    data = in_data\n    byvarshere\n   ,denominator = 'column'\n  ) |>\ndplyr::filter(stat_name %in% c('n', 'p')) |>\n dplyr::mutate(operationid = dplyr::case_when(\n    stat_name == 'n' ~ 'opid1here',\n    stat_name == 'p' ~ 'opid2here'\n  ))",
        "parameters": [
          {
            "name": "distinctlisthere",
            "description": "distinct list of grouping variables and analysis variable",
            "valueSource": "distinct_list"
          },
          {
            "name": "byvarshere",
            "description": "by and variables args",
            "valueSource": "by_vars"
          },
          {
            "name": "opid1here",
            "description": "operation 1 id",
            "valueSource": "operation_1"
          },
          {
            "name": "opid2here",
            "description": "operation 2 id",
            "valueSource": "operation_2"
          }
        ]
      }
    },
    {
      "name": "Summary by group of a continuous variable",
      "description": "Descriptive summary statistics across groups for a continuous variable",
      "label": "Grouped summary of continuous variable",
      "id": "Mth_06",
      "operations": [
        {
          "name": "n",
          "label": "n",
          "id": "Mth_06_01_n",
          "order": 1,
          "resultPattern": "XX"
        },
        {
          "name": "Mean",
          "label": "Mean",
          "id": "Mth_06_02_Mean",
          "order": 2,
          "resultPattern": "XX.X"
        },
        {
          "name": "SD",
          "label": "SD",
          "id": "Mth_06_03_SD",
          "order": 3,
          "resultPattern": "(XX.XX)"
        },
        {
          "name": "Median",
          "label": "Median",
          "id": "Mth_06_04_Median",
          "order": 4,
          "resultPattern": "XX.X"
        },
        {
          "name": "Q1",
          "label": "Q1",
          "id": "Mth_06_05_Q1",
          "order": 5,
          "resultPattern": "XX.X"
        },
        {
          "name": "Q3",
          "label": "Q3",
          "id": "Mth_06_06_Q3",
          "order": 6,
          "resultPattern": "XX.X"
        },
        {
          "name": "Min",
          "label": "Min",
          "id": "Mth_06_07_Min",
          "order": 7,
          "resultPattern": "XX.X"
        },
        {
          "name": "Max",
          "label": "Max",
          "id": "Mth_06_08_Max",
          "order": 8,
          "resultPattern": "XX.X"
        }
      ],
      "codeTemplate": {
        "context": "R (siera)",
        "code": "df3_analysisidhere <-\n    cards::ard_summary(\n        data = df2_analysisidhere,\n        by = c(byvarshere),\n        variables = anavarhere\n    ) |>\n    dplyr::mutate(operationid = dplyr::case_when(\n        stat_name == 'N'      ~ 'opid1here',\n        stat_name == 'mean'   ~ 'opid2here',\n        stat_name == 'sd'     ~ 'opid3here',\n        stat_name == 'median' ~ 'opid4here',\n        stat_name == 'p25'    ~ 'opid5here',\n        stat_name == 'p75'    ~ 'opid6here',\n        stat_name == 'min'    ~ 'opid7here',\n        stat_name == 'max'    ~ 'opid8here'\n    ))",
        "parameters": [
          {
            "name": "byvarshere",
            "description": "by variables list",
            "valueSource": "by_listc"
          },
          {
            "name": "anavarhere",
            "description": "analysis variable",
            "valueSource": "ana_var"
          },
          {
            "name": "opid1here",
            "description": "operation 1 id (n)",
            "valueSource": "operation_1"
          },
          {
            "name": "opid2here",
            "description": "operation 2 id (mean)",
            "valueSource": "operation_2"
          },
          {
            "name": "opid3here",
            "description": "operation 3 id (sd)",
            "valueSource": "operation_3"
          },
          {
            "name": "opid4here",
            "description": "operation 4 id (med)",
            "valueSource": "operation_4"
          },
          {
            "name": "opid5here",
            "description": "operation 5 id (q1)",
            "valueSource": "operation_5"
          },
          {
            "name": "opid6here",
            "description": "operation 6 id (q3)",
            "valueSource": "operation_6"
          },
          {
            "name": "opid7here",
            "description": "operation 7 id (min)",
            "valueSource": "operation_7"
          },
          {
            "name": "opid8here",
            "description": "operation 8 id (max)",
            "valueSource": "operation_8"
          },
          {
            "name": "anavarhere",
            "description": "analysis variable",
            "valueSource": "ana_var"
          }
        ]
      }
    },
    {
      "id": "Mth_03p",
      "name": "Categorical n% per pre-defined inner group (zero-filled)",
      "description": "Categorical n% aggregated per PRE-DEFINED group condition of the inner grouping: every defined group is emitted (absent ones as n = 0 / % = 0.0) and data values satisfying no defined group are excluded (#187). Method-library id categorical_summary_per_predefined_group.",
      "label": "Categorical n (%) (per pre-defined group)",
      "operations": [
        {
          "id": "Mth_03p_01_n",
          "name": "n",
          "label": "n",
          "order": 1,
          "resultPattern": "XX"
        },
        {
          "id": "Mth_03p_02_%",
          "name": "%",
          "label": "%",
          "order": 2,
          "resultPattern": "(XX.X)",
          "referencedOperationRelationships": [
            {
              "id": "Mth_03p_pct_NUM",
              "description": "Numerator for percentage.",
              "referencedOperationRole": {
                "controlledTerm": "NUMERATOR"
              },
              "operationId": "Mth_03p_01_n"
            },
            {
              "id": "Mth_03p_pct_DEN",
              "description": "Denominator for percentage.",
              "referencedOperationRole": {
                "controlledTerm": "DENOMINATOR"
              },
              "operationId": "Mth_00_1_01_n"
            }
          ]
        }
      ],
      "codeTemplate": {
        "context": "R (siera)",
        "code": "# Denominator: the referenced analysis's population count per Group1 level.\ndenom_analysisidhere <- df2_denomanaidhere |>\n    dplyr::count(denom_anagroupvarshere) |>\n    dplyr::rename(`...ard_N...` = n) |>\n    dplyr::mutate(dplyr::across(-`...ard_N...`, as.character))\n\n# Group1's levels come from the denominator, so an arm in which no subject\n# qualifies still gets a zero row; Group2's levels are the ones the ARS\n# metadata DEFINES, not the ones the data happens to contain.\n.arms_analysisidhere <- as.character(denom_analysisidhere$groupvar1here)\n.levels_analysisidhere <- c(group2levelshere)\n\ndenom_analysisidhere <- denom_analysisidhere |>\n    dplyr::mutate(groupvar1here = factor(groupvar1here, levels = .arms_analysisidhere))\n\nin_data_analysisidhere <- df2_analysisidhere |>\n    dplyr::mutate(ars_group = dplyr::case_when(\n      group2conditionshere,\n      TRUE ~ NA_character_\n    )) |>\n    # A data value satisfying none of the defined group conditions was never\n    # asked for by the ARS, so it is excluded rather than tabulated.\n    dplyr::filter(!is.na(ars_group)) |>\n    dplyr::distinct(groupvar1here, ars_group, anavarhere) |>\n    dplyr::mutate(\n      groupvar1here = factor(as.character(groupvar1here), levels = .arms_analysisidhere),\n      ars_group     = factor(ars_group, levels = .levels_analysisidhere)\n    ) |>\n    dplyr::select(groupvar1here, ars_group)\n\ndf3_analysisidhere <- if (length(.levels_analysisidhere) > 0) {\n  cards::ard_tabulate(\n      data = in_data_analysisidhere,\n      by = 'groupvar1here',\n      variables = 'ars_group',\n      denominator = denom_analysisidhere\n    ) |>\n  dplyr::filter(stat_name %in% c('n', 'p')) |>\n  dplyr::rename(group2_level = variable_level) |>\n  # cards returns the levels as list-columns of factors, whose as.character()\n  # is the integer code - flatten to the labels before siera stamps group ids.\n  dplyr::mutate(dplyr::across(\n      dplyr::matches('_level$'),\n      ~ vapply(.x, function(v) if (is.null(v)) NA_character_ else as.character(v), character(1L))\n    )) |>\n  dplyr::mutate(operationid = dplyr::case_when(\n      stat_name == 'n' ~ 'opid1here',\n      stat_name == 'p' ~ 'opid2here'\n    ))\n} else {\n  tibble::tibble(group1_level = character(0), group2_level = character(0),\n                 stat_name = character(0), stat = list(),\n                 operationid = character(0))\n}\n",
        "parameters": [
          {
            "name": "denomanaidhere",
            "label": "denom ana id",
            "description": "Analysis ID supplying the denominator",
            "valueSource": "DEN_analysisid"
          },
          {
            "name": "denom_anagroupvarshere",
            "label": "denom grp var",
            "description": "Grouping variable(s) of the denominator analysis",
            "valueSource": "AG_denom_var1"
          },
          {
            "name": "groupvar1here",
            "label": "grp var 1",
            "description": "Grouping variable from Group1 (treatment arm)",
            "valueSource": "AG_var1"
          },
          {
            "name": "group2conditionshere",
            "label": "grp 2 conditions",
            "description": "case_when body mapping data values onto Group2's pre-defined groups, in group order",
            "valueSource": "AG_var2_group_conditions"
          },
          {
            "name": "group2levelshere",
            "label": "grp 2 levels",
            "description": "Quoted, comma-separated levels of Group2's pre-defined groups, in group order, used as factor levels to zero-fill absent groups",
            "valueSource": "AG_var2_group_levels"
          },
          {
            "name": "anavarhere",
            "label": "ana var",
            "description": "Analysis variable (subject ID) counted distinctly",
            "valueSource": "ana_var"
          },
          {
            "name": "opid1here",
            "label": "op id 1",
            "description": "Operation id for the 'n' statistic (order 1)",
            "valueSource": "operation_1"
          },
          {
            "name": "opid2here",
            "label": "op id 2",
            "description": "Operation id for the 'p' statistic (order 2)",
            "valueSource": "operation_2"
          }
        ]
      }
    },
    {
      "id": "Mth_03pt",
      "name": "Categorical n% per pre-defined group, no treatment grouping (zero-filled)",
      "description": "Categorical n% for an analysis whose only grouping is pre-defined (Total column): every defined group is emitted (absent ones as n = 0 / % = 0.0), % over the referenced denominator analysis's distinct subjects (#227). Method-library id categorical_summary_per_predefined_group_overall.",
      "label": "Categorical n (%) (per pre-defined group, overall)",
      "operations": [
        {
          "id": "Mth_03pt_01_n",
          "name": "n",
          "label": "n",
          "order": 1,
          "resultPattern": "XX"
        },
        {
          "id": "Mth_03pt_02_%",
          "name": "%",
          "label": "%",
          "order": 2,
          "resultPattern": "(XX.X)",
          "referencedOperationRelationships": [
            {
              "id": "Mth_03pt_pct_NUM",
              "description": "Numerator for percentage.",
              "referencedOperationRole": {
                "controlledTerm": "NUMERATOR"
              },
              "operationId": "Mth_03pt_01_n"
            },
            {
              "id": "Mth_03pt_pct_DEN",
              "description": "Denominator for percentage.",
              "referencedOperationRole": {
                "controlledTerm": "DENOMINATOR"
              },
              "operationId": "Mth_00_1_01_n"
            }
          ]
        }
      ],
      "codeTemplate": {
        "context": "R (siera)",
        "code": "# Population-based (see df_poptot): the zero-fill below must also run when the\n# data subset is empty, so siera drops its empty-data guard for this method -\n# an empty subset yields n = 0 / 0.0% for every defined group.\n# Denominator: the referenced analysis's distinct subjects, as ONE overall\n# count - this analysis has no treatment grouping to split it by.\ndenom_analysisidhere <- tibble::tibble(\n    `...ard_N...` = dplyr::n_distinct(df2_denomanaidhere$anavarhere)\n)\n\n# The levels are the ones the ARS metadata DEFINES, not the ones the data\n# happens to contain.\n.levels_analysisidhere <- c(group1levelshere)\n\nin_data_analysisidhere <- df2_analysisidhere |>\n    dplyr::mutate(ars_group = dplyr::case_when(\n      group1conditionshere,\n      TRUE ~ NA_character_\n    )) |>\n    # A data value satisfying none of the defined group conditions was never\n    # asked for by the ARS, so it is excluded rather than tabulated.\n    dplyr::filter(!is.na(ars_group)) |>\n    dplyr::distinct(ars_group, anavarhere) |>\n    dplyr::mutate(ars_group = factor(ars_group, levels = .levels_analysisidhere)) |>\n    dplyr::select(ars_group)\n\ndf3_analysisidhere <- if (length(.levels_analysisidhere) > 0) {\n  cards::ard_tabulate(\n      data = in_data_analysisidhere,\n      variables = 'ars_group',\n      denominator = denom_analysisidhere\n    ) |>\n  dplyr::filter(stat_name %in% c('n', 'p')) |>\n  dplyr::rename(group1_level = variable_level) |>\n  # cards returns the levels as list-columns of factors, whose as.character()\n  # is the integer code - flatten to the labels before siera stamps group ids.\n  dplyr::mutate(dplyr::across(\n      dplyr::matches('_level$'),\n      ~ vapply(.x, function(v) if (is.null(v)) NA_character_ else as.character(v), character(1L))\n    )) |>\n  dplyr::mutate(operationid = dplyr::case_when(\n      stat_name == 'n' ~ 'opid1here',\n      stat_name == 'p' ~ 'opid2here'\n    ))\n} else {\n  tibble::tibble(group1_level = character(0), stat_name = character(0),\n                 stat = list(), operationid = character(0))\n}",
        "parameters": [
          {
            "name": "denomanaidhere",
            "label": "denom ana id",
            "description": "Analysis ID supplying the denominator population",
            "valueSource": "DEN_analysisid"
          },
          {
            "name": "group1conditionshere",
            "label": "grp 1 conditions",
            "description": "case_when body mapping data values onto Group1's pre-defined groups, in group order",
            "valueSource": "AG_var1_group_conditions"
          },
          {
            "name": "group1levelshere",
            "label": "grp 1 levels",
            "description": "Quoted, comma-separated levels of Group1's pre-defined groups, in group order, used as factor levels to zero-fill absent groups",
            "valueSource": "AG_var1_group_levels"
          },
          {
            "name": "anavarhere",
            "label": "ana var",
            "description": "Analysis variable (subject ID) counted distinctly, in this analysis and in the denominator",
            "valueSource": "ana_var"
          },
          {
            "name": "opid1here",
            "label": "op id 1",
            "description": "Operation id for the 'n' statistic (order 1)",
            "valueSource": "operation_1"
          },
          {
            "name": "opid2here",
            "label": "op id 2",
            "description": "Operation id for the 'p' statistic (order 2)",
            "valueSource": "operation_2"
          }
        ]
      }
    },
    {
      "id": "Mth_03a",
      "name": "Categorical n% (2-grouping: last grouping -> variables=)",
      "description": "Categorical n% for 2-grouping analyses: first grouping = by=, second = variables= in ard_tabulate",
      "label": "Categorical n% (2-grouping)",
      "operations": [
        {
          "id": "Mth_03a_01_n",
          "name": "n",
          "label": "n",
          "order": 1,
          "resultPattern": "XX"
        },
        {
          "id": "Mth_03a_02_%",
          "name": "%",
          "label": "%",
          "order": 2,
          "resultPattern": "XX.X",
          "referencedOperationRelationships": [
            {
              "id": "Mth_03a_pct_NUM",
              "description": "Numerator for percentage.",
              "referencedOperationRole": {
                "controlledTerm": "NUMERATOR"
              },
              "operationId": "Mth_03a_01_n"
            },
            {
              "id": "Mth_03a_pct_DEN",
              "description": "Denominator for percentage.",
              "referencedOperationRole": {
                "controlledTerm": "DENOMINATOR"
              },
              "operationId": "Mth_00_1_01_n"
            }
          ]
        }
      ],
      "codeTemplate": {
        "context": "R (siera)",
        "code": "denom_dataset = df2_denomanaidhere |>\n    dplyr::count(denom_anagroupvarshere) |>\n    dplyr::rename(`...ard_N...` = n) |>\n    dplyr::mutate(dplyr::across(-`...ard_N...`, as.character))\n\ndf3_analysisidhere <- tryCatch({\nin_data = df2_analysisidhere |>\n    dplyr::select(distinctlisthere) |>\n    unique() |>\n    dplyr::mutate(dplyr::across(everything(), as.character))\n\ncards::ard_tabulate(\n    data = in_data\n   byvarshere\n   ,denominator = denom_dataset\n  ) |>\ndplyr::filter(stat_name %in% c('n', 'p')) |>\ndplyr::rename(group2_level = variable_level) |>\n dplyr::mutate(operationid = dplyr::case_when(\n    stat_name == 'n' ~ 'opid1here',\n    stat_name == 'p' ~ 'opid2here'\n  ))\n}, error = function(e) {\n  message('analysisidhere: ', conditionMessage(e))\n  tibble::tibble(group1_level = character(0), group2_level = character(0))\n})",
        "parameters": [
          {
            "name": "distinctlisthere",
            "label": "distinct list",
            "description": "grouping+analysis vars",
            "valueSource": "distinct_list"
          },
          {
            "name": "byvarshere",
            "label": "by+vars",
            "description": "by= and variables= for ard_tabulate",
            "valueSource": "by_vars"
          },
          {
            "name": "denomanaidhere",
            "label": "denom ana id",
            "description": "Denominator analysis ID",
            "valueSource": "DEN_analysisid"
          },
          {
            "name": "denom_anagroupvarshere",
            "label": "denom grp var",
            "description": "Denominator grouping variable",
            "valueSource": "AG_denom_var1"
          },
          {
            "name": "opid1here",
            "label": "n id",
            "description": "Operation ID for n",
            "valueSource": "operation_1"
          },
          {
            "name": "opid2here",
            "label": "% id",
            "description": "Operation ID for %",
            "valueSource": "operation_2"
          }
        ]
      }
    },
    {
      "id": "Mth_03at",
      "name": "Categorical n% (1 data-driven grouping, no treatment grouping)",
      "description": "Categorical n% for an analysis whose only grouping is data-driven (Total column): the grouping goes to variables= and is renamed to group1_level; % over the referenced denominator analysis's distinct subjects (#227).",
      "label": "Categorical n% (data-driven, overall)",
      "operations": [
        {
          "id": "Mth_03at_01_n",
          "name": "n",
          "label": "n",
          "order": 1,
          "resultPattern": "XX"
        },
        {
          "id": "Mth_03at_02_%",
          "name": "%",
          "label": "%",
          "order": 2,
          "resultPattern": "XX.X",
          "referencedOperationRelationships": [
            {
              "id": "Mth_03at_pct_NUM",
              "description": "Numerator for percentage.",
              "referencedOperationRole": {
                "controlledTerm": "NUMERATOR"
              },
              "operationId": "Mth_03at_01_n"
            },
            {
              "id": "Mth_03at_pct_DEN",
              "description": "Denominator for percentage.",
              "referencedOperationRole": {
                "controlledTerm": "DENOMINATOR"
              },
              "operationId": "Mth_00_1_01_n"
            }
          ]
        }
      ],
      "codeTemplate": {
        "context": "R (siera)",
        "code": "# One overall denominator: this analysis has no treatment grouping.\ndenom_dataset = tibble::tibble(\n    `...ard_N...` = dplyr::n_distinct(df2_denomanaidhere$anavarhere)\n)\n\nin_data = df2_analysisidhere |>\n    dplyr::distinct(groupvar1here, anavarhere) |>\n    dplyr::mutate(dplyr::across(dplyr::everything(), as.character))\n\ndf3_analysisidhere <- cards::ard_tabulate(\n    data = in_data,\n    variables = 'groupvar1here',\n    denominator = denom_dataset\n  ) |>\ndplyr::filter(stat_name %in% c('n', 'p')) |>\ndplyr::rename(group1_level = variable_level) |>\n dplyr::mutate(operationid = dplyr::case_when(\n    stat_name == 'n' ~ 'opid1here',\n    stat_name == 'p' ~ 'opid2here'\n  ))",
        "parameters": [
          {
            "name": "denomanaidhere",
            "label": "denom ana id",
            "description": "Denominator analysis ID",
            "valueSource": "DEN_analysisid"
          },
          {
            "name": "groupvar1here",
            "label": "grp var 1",
            "description": "The (data-driven) grouping variable",
            "valueSource": "AG_var1"
          },
          {
            "name": "anavarhere",
            "label": "ana var",
            "description": "Analysis variable (subject ID)",
            "valueSource": "ana_var"
          },
          {
            "name": "opid1here",
            "label": "n id",
            "description": "Operation ID for n",
            "valueSource": "operation_1"
          },
          {
            "name": "opid2here",
            "label": "% id",
            "description": "Operation ID for %",
            "valueSource": "operation_2"
          }
        ]
      }
    }
  ],
  "analyses": [
    {
      "name": "Summary of Subjects by Treatment",
      "id": "An_01",
      "reason": {
        "controlledTerm": "SPECIFIED IN SAP"
      },
      "purpose": {
        "sponsorTermId": "TermEx01_01"
      },
      "methodId": "Mth_00_1",
      "version": 1,
      "categoryIds": [
        "ANSET_01",
        "ANSET_01_ANINT_04"
      ],
      "dataset": "ADSL",
      "variable": "USUBJID",
      "analysisSetId": "AnalysisSet_01",
      "orderedGroupings": [
        {
          "order": 1,
          "groupingId": "AnlsGrouping_01_Trt01An",
          "resultsByGroup": true
        }
      ],
      "results": [
        {
          "operationId": "Mth_00_1_01_n",
          "rawValue": "254",
          "formattedValue": "(N=254)"
        },
        {
          "operationId": "Mth_00_1_01_n",
          "resultGroups": [
            {
              "groupingId": "AnlsGrouping_01_Trt01An",
              "groupId": "AnlsGrouping_01_Trt01An_01"
            }
          ],
          "rawValue": "84",
          "formattedValue": "(N=84)"
        },
        {
          "operationId": "Mth_00_1_01_n",
          "resultGroups": [
            {
              "groupingId": "AnlsGrouping_01_Trt01An",
              "groupId": "AnlsGrouping_01_Trt01An_02"
            }
          ],
          "rawValue": "84",
          "formattedValue": "(N=84)"
        },
        {
          "operationId": "Mth_00_1_01_n",
          "resultGroups": [
            {
              "groupingId": "AnlsGrouping_01_Trt01An",
              "groupId": "AnlsGrouping_01_Trt01An_03"
            }
          ],
          "rawValue": "86",
          "formattedValue": "(N=86)"
        }
      ]
    },
    {
      "name": "Summary of Subjects by Treatment and Sex, n (%)",
      "id": "An_02",
      "reason": {
        "controlledTerm": "SPECIFIED IN SAP"
      },
      "purpose": {
        "sponsorTermId": "TermEx01_01"
      },
      "methodId": "Mth_03p",
      "version": 1,
      "categoryIds": [
        "ANSET_01",
        "ANSET_01_ANINT_04"
      ],
      "dataset": "ADSL",
      "variable": "USUBJID",
      "analysisSetId": "AnalysisSet_01",
      "orderedGroupings": [
        {
          "order": 1,
          "groupingId": "AnlsGrouping_01_Trt01An",
          "resultsByGroup": true
        },
        {
          "order": 2,
          "groupingId": "AnlsGrouping_02_Asex",
          "resultsByGroup": true
        }
      ],
      "referencedAnalysisOperations": [
        {
          "referencedOperationRelationshipId": "Mth_03p_pct_NUM",
          "analysisId": "An_02"
        },
        {
          "referencedOperationRelationshipId": "Mth_03p_pct_DEN",
          "analysisId": "An_01"
        }
      ],
      "results": [
        {
          "operationId": "Mth_03_01_n",
          "resultGroups": [
            {
              "groupingId": "AnlsGrouping_01_Trt01An",
              "groupId": "AnlsGrouping_01_Trt01An_01"
            },
            {
              "groupingId": "AnlsGrouping_02_Asex",
              "groupId": "AnlsGrouping_02_Asex_01"
            }
          ],
          "rawValue": "34",
          "formattedValue": "34"
        },
        {
          "operationId": "Mth_03_01_n",
          "resultGroups": [
            {
              "groupingId": "AnlsGrouping_01_Trt01An",
              "groupId": "AnlsGrouping_01_Trt01An_01"
            },
            {
              "groupingId": "AnlsGrouping_02_Asex",
              "groupId": "AnlsGrouping_02_Asex_02"
            }
          ],
          "rawValue": "50",
          "formattedValue": "50"
        },
        {
          "operationId": "Mth_03_01_n",
          "resultGroups": [
            {
              "groupingId": "AnlsGrouping_01_Trt01An",
              "groupId": "AnlsGrouping_01_Trt01An_01"
            },
            {
              "groupingId": "AnlsGrouping_02_Asex",
              "groupId": "AnlsGrouping_02_Asex_03"
            }
          ],
          "rawValue": "0",
          "formattedValue": "0"
        },
        {
          "operationId": "Mth_03_01_n",
          "resultGroups": [
            {
              "groupingId": "AnlsGrouping_01_Trt01An",
              "groupId": "AnlsGrouping_01_Trt01An_01"
            },
            {
              "groupingId": "AnlsGrouping_02_Asex",
              "groupId": "AnlsGrouping_02_Asex_04"
            }
          ],
          "rawValue": "0",
          "formattedValue": "0"
        },
        {
          "operationId": "Mth_03_01_n",
          "resultGroups": [
            {
              "groupingId": "AnlsGrouping_01_Trt01An",
              "groupId": "AnlsGrouping_01_Trt01An_02"
            },
            {
              "groupingId": "AnlsGrouping_02_Asex",
              "groupId": "AnlsGrouping_02_Asex_01"
            }
          ],
          "rawValue": "44",
          "formattedValue": "44"
        },
        {
          "operationId": "Mth_03_01_n",
          "resultGroups": [
            {
              "groupingId": "AnlsGrouping_01_Trt01An",
              "groupId": "AnlsGrouping_01_Trt01An_02"
            },
            {
              "groupingId": "AnlsGrouping_02_Asex",
              "groupId": "AnlsGrouping_02_Asex_02"
            }
          ],
          "rawValue": "40",
          "formattedValue": "40"
        },
        {
          "operationId": "Mth_03_01_n",
          "resultGroups": [
            {
              "groupingId": "AnlsGrouping_01_Trt01An",
              "groupId": "AnlsGrouping_01_Trt01An_02"
            },
            {
              "groupingId": "AnlsGrouping_02_Asex",
              "groupId": "AnlsGrouping_02_Asex_03"
            }
          ],
          "rawValue": "0",
          "formattedValue": "0"
        },
        {
          "operationId": "Mth_03_01_n",
          "resultGroups": [
            {
              "groupingId": "AnlsGrouping_01_Trt01An",
              "groupId": "AnlsGrouping_01_Trt01An_02"
            },
            {
              "groupingId": "AnlsGrouping_02_Asex",
              "groupId": "AnlsGrouping_02_Asex_04"
            }
          ],
          "rawValue": "0",
          "formattedValue": "0"
        },
        {
          "operationId": "Mth_03_01_n",
          "resultGroups": [
            {
              "groupingId": "AnlsGrouping_01_Trt01An",
              "groupId": "AnlsGrouping_01_Trt01An_03"
            },
            {
              "groupingId": "AnlsGrouping_02_Asex",
              "groupId": "AnlsGrouping_02_Asex_01"
            }
          ],
          "rawValue": "33",
          "formattedValue": "33"
        },
        {
          "operationId": "Mth_03_01_n",
          "resultGroups": [
            {
              "groupingId": "AnlsGrouping_01_Trt01An",
              "groupId": "AnlsGrouping_01_Trt01An_03"
            },
            {
              "groupingId": "AnlsGrouping_02_Asex",
              "groupId": "AnlsGrouping_02_Asex_02"
            }
          ],
          "rawValue": "53",
          "formattedValue": "53"
        },
        {
          "operationId": "Mth_03_01_n",
          "resultGroups": [
            {
              "groupingId": "AnlsGrouping_01_Trt01An",
              "groupId": "AnlsGrouping_01_Trt01An_03"
            },
            {
              "groupingId": "AnlsGrouping_02_Asex",
              "groupId": "AnlsGrouping_02_Asex_03"
            }
          ],
          "rawValue": "0",
          "formattedValue": "0"
        },
        {
          "operationId": "Mth_03_01_n",
          "resultGroups": [
            {
              "groupingId": "AnlsGrouping_01_Trt01An",
              "groupId": "AnlsGrouping_01_Trt01An_03"
            },
            {
              "groupingId": "AnlsGrouping_02_Asex",
              "groupId": "AnlsGrouping_02_Asex_04"
            }
          ],
          "rawValue": "0",
          "formattedValue": "0"
        },
        {
          "operationId": "Mth_03_02_%",
          "resultGroups": [
            {
              "groupingId": "AnlsGrouping_01_Trt01An",
              "groupId": "AnlsGrouping_01_Trt01An_01"
            },
            {
              "groupingId": "AnlsGrouping_02_Asex",
              "groupId": "AnlsGrouping_02_Asex_01"
            }
          ],
          "rawValue": "40.476190476",
          "formattedValue": "(40.5)"
        },
        {
          "operationId": "Mth_03_02_%",
          "resultGroups": [
            {
              "groupingId": "AnlsGrouping_01_Trt01An",
              "groupId": "AnlsGrouping_01_Trt01An_01"
            },
            {
              "groupingId": "AnlsGrouping_02_Asex",
              "groupId": "AnlsGrouping_02_Asex_02"
            }
          ],
          "rawValue": "59.523809524",
          "formattedValue": "(59.5)"
        },
        {
          "operationId": "Mth_03_02_%",
          "resultGroups": [
            {
              "groupingId": "AnlsGrouping_01_Trt01An",
              "groupId": "AnlsGrouping_01_Trt01An_01"
            },
            {
              "groupingId": "AnlsGrouping_02_Asex",
              "groupId": "AnlsGrouping_02_Asex_03"
            }
          ],
          "rawValue": "0",
          "formattedValue": "(0.0)"
        },
        {
          "operationId": "Mth_03_02_%",
          "resultGroups": [
            {
              "groupingId": "AnlsGrouping_01_Trt01An",
              "groupId": "AnlsGrouping_01_Trt01An_01"
            },
            {
              "groupingId": "AnlsGrouping_02_Asex",
              "groupId": "AnlsGrouping_02_Asex_04"
            }
          ],
          "rawValue": "0",
          "formattedValue": "(0.0)"
        },
        {
          "operationId": "Mth_03_02_%",
          "resultGroups": [
            {
              "groupingId": "AnlsGrouping_01_Trt01An",
              "groupId": "AnlsGrouping_01_Trt01An_02"
            },
            {
              "groupingId": "AnlsGrouping_02_Asex",
              "groupId": "AnlsGrouping_02_Asex_01"
            }
          ],
          "rawValue": "52.380952381",
          "formattedValue": "(52.4)"
        },
        {
          "operationId": "Mth_03_02_%",
          "resultGroups": [
            {
              "groupingId": "AnlsGrouping_01_Trt01An",
              "groupId": "AnlsGrouping_01_Trt01An_02"
            },
            {
              "groupingId": "AnlsGrouping_02_Asex",
              "groupId": "AnlsGrouping_02_Asex_02"
            }
          ],
          "rawValue": "47.619047619",
          "formattedValue": "(47.6)"
        },
        {
          "operationId": "Mth_03_02_%",
          "resultGroups": [
            {
              "groupingId": "AnlsGrouping_01_Trt01An",
              "groupId": "AnlsGrouping_01_Trt01An_02"
            },
            {
              "groupingId": "AnlsGrouping_02_Asex",
              "groupId": "AnlsGrouping_02_Asex_03"
            }
          ],
          "rawValue": "0",
          "formattedValue": "(0.0)"
        },
        {
          "operationId": "Mth_03_02_%",
          "resultGroups": [
            {
              "groupingId": "AnlsGrouping_01_Trt01An",
              "groupId": "AnlsGrouping_01_Trt01An_02"
            },
            {
              "groupingId": "AnlsGrouping_02_Asex",
              "groupId": "AnlsGrouping_02_Asex_04"
            }
          ],
          "rawValue": "0",
          "formattedValue": "(0.0)"
        },
        {
          "operationId": "Mth_03_02_%",
          "resultGroups": [
            {
              "groupingId": "AnlsGrouping_01_Trt01An",
              "groupId": "AnlsGrouping_01_Trt01An_03"
            },
            {
              "groupingId": "AnlsGrouping_02_Asex",
              "groupId": "AnlsGrouping_02_Asex_01"
            }
          ],
          "rawValue": "38.372093023",
          "formattedValue": "(38.4)"
        },
        {
          "operationId": "Mth_03_02_%",
          "resultGroups": [
            {
              "groupingId": "AnlsGrouping_01_Trt01An",
              "groupId": "AnlsGrouping_01_Trt01An_03"
            },
            {
              "groupingId": "AnlsGrouping_02_Asex",
              "groupId": "AnlsGrouping_02_Asex_02"
            }
          ],
          "rawValue": "61.627906977",
          "formattedValue": "(61.6)"
        },
        {
          "operationId": "Mth_03_02_%",
          "resultGroups": [
            {
              "groupingId": "AnlsGrouping_01_Trt01An",
              "groupId": "AnlsGrouping_01_Trt01An_03"
            },
            {
              "groupingId": "AnlsGrouping_02_Asex",
              "groupId": "AnlsGrouping_02_Asex_03"
            }
          ],
          "rawValue": "0",
          "formattedValue": "(0.0)"
        },
        {
          "operationId": "Mth_03_02_%",
          "resultGroups": [
            {
              "groupingId": "AnlsGrouping_01_Trt01An",
              "groupId": "AnlsGrouping_01_Trt01An_03"
            },
            {
              "groupingId": "AnlsGrouping_02_Asex",
              "groupId": "AnlsGrouping_02_Asex_04"
            }
          ],
          "rawValue": "0",
          "formattedValue": "(0.0)"
        }
      ]
    },
    {
      "name": "Summary of Subjects by Sex, n (%)",
      "id": "An_02_Total",
      "reason": {
        "controlledTerm": "SPECIFIED IN SAP"
      },
      "purpose": {
        "sponsorTermId": "TermEx01_01"
      },
      "methodId": "Mth_03pt",
      "version": 1,
      "categoryIds": [
        "ANSET_01",
        "ANSET_01_ANINT_04"
      ],
      "dataset": "ADSL",
      "variable": "USUBJID",
      "analysisSetId": "AnalysisSet_01",
      "dataSubsetId": "Dss_28",
      "orderedGroupings": [
        {
          "order": 1,
          "groupingId": "AnlsGrouping_02_Asex",
          "resultsByGroup": true
        }
      ],
      "referencedAnalysisOperations": [
        {
          "referencedOperationRelationshipId": "Mth_03pt_pct_NUM",
          "analysisId": "An_02_Total"
        },
        {
          "referencedOperationRelationshipId": "Mth_03pt_pct_DEN",
          "analysisId": "An_01"
        }
      ],
      "results": [
        {
          "operationId": "Mth_03_01_n",
          "resultGroups": [
            {
              "groupingId": "AnlsGrouping_02_Asex",
              "groupId": "AnlsGrouping_02_Asex_01"
            }
          ],
          "rawValue": "111",
          "formattedValue": "111"
        },
        {
          "operationId": "Mth_03_01_n",
          "resultGroups": [
            {
              "groupingId": "AnlsGrouping_02_Asex",
              "groupId": "AnlsGrouping_02_Asex_02"
            }
          ],
          "rawValue": "143",
          "formattedValue": "143"
        },
        {
          "operationId": "Mth_03_01_n",
          "resultGroups": [
            {
              "groupingId": "AnlsGrouping_02_Asex",
              "groupId": "AnlsGrouping_02_Asex_03"
            }
          ],
          "rawValue": "0",
          "formattedValue": "0"
        },
        {
          "operationId": "Mth_03_01_n",
          "resultGroups": [
            {
              "groupingId": "AnlsGrouping_02_Asex",
              "groupId": "AnlsGrouping_02_Asex_04"
            }
          ],
          "rawValue": "0",
          "formattedValue": "0"
        },
        {
          "operationId": "Mth_03_02_%",
          "resultGroups": [
            {
              "groupingId": "AnlsGrouping_02_Asex",
              "groupId": "AnlsGrouping_02_Asex_01"
            }
          ],
          "rawValue": "43.700787402",
          "formattedValue": "(43.7)"
        },
        {
          "operationId": "Mth_03_02_%",
          "resultGroups": [
            {
              "groupingId": "AnlsGrouping_02_Asex",
              "groupId": "AnlsGrouping_02_Asex_02"
            }
          ],
          "rawValue": "56.299212598",
          "formattedValue": "(56.3)"
        },
        {
          "operationId": "Mth_03_02_%",
          "resultGroups": [
            {
              "groupingId": "AnlsGrouping_02_Asex",
              "groupId": "AnlsGrouping_02_Asex_03"
            }
          ],
          "rawValue": "0",
          "formattedValue": "(0.0)"
        },
        {
          "operationId": "Mth_03_02_%",
          "resultGroups": [
            {
              "groupingId": "AnlsGrouping_02_Asex",
              "groupId": "AnlsGrouping_02_Asex_04"
            }
          ],
          "rawValue": "0",
          "formattedValue": "(0.0)"
        }
      ]
    },
    {
      "name": "Summary of Age, Years by Treatment",
      "id": "An_03",
      "reason": {
        "controlledTerm": "SPECIFIED IN SAP"
      },
      "purpose": {
        "sponsorTermId": "TermEx01_01"
      },
      "methodId": "Mth_06",
      "version": 1,
      "categoryIds": [
        "ANSET_01",
        "ANSET_01_ANINT_04"
      ],
      "dataset": "ADSL",
      "variable": "AGE",
      "analysisSetId": "AnalysisSet_01",
      "orderedGroupings": [
        {
          "order": 1,
          "groupingId": "AnlsGrouping_01_Trt01An",
          "resultsByGroup": true
        }
      ],
      "results": [
        {
          "operationId": "Mth_06_01_n",
          "resultGroups": [
            {
              "groupingId": "AnlsGrouping_01_Trt01An",
              "groupId": "AnlsGrouping_01_Trt01An_01"
            }
          ],
          "rawValue": "84",
          "formattedValue": "84"
        },
        {
          "operationId": "Mth_06_01_n",
          "resultGroups": [
            {
              "groupingId": "AnlsGrouping_01_Trt01An",
              "groupId": "AnlsGrouping_01_Trt01An_02"
            }
          ],
          "rawValue": "84",
          "formattedValue": "84"
        },
        {
          "operationId": "Mth_06_01_n",
          "resultGroups": [
            {
              "groupingId": "AnlsGrouping_01_Trt01An",
              "groupId": "AnlsGrouping_01_Trt01An_03"
            }
          ],
          "rawValue": "86",
          "formattedValue": "86"
        },
        {
          "operationId": "Mth_06_02_Mean",
          "resultGroups": [
            {
              "groupingId": "AnlsGrouping_01_Trt01An",
              "groupId": "AnlsGrouping_01_Trt01An_01"
            }
          ],
          "rawValue": "75.666666667",
          "formattedValue": "75.7"
        },
        {
          "operationId": "Mth_06_02_Mean",
          "resultGroups": [
            {
              "groupingId": "AnlsGrouping_01_Trt01An",
              "groupId": "AnlsGrouping_01_Trt01An_02"
            }
          ],
          "rawValue": "74.380952381",
          "formattedValue": "74.4"
        },
        {
          "operationId": "Mth_06_02_Mean",
          "resultGroups": [
            {
              "groupingId": "AnlsGrouping_01_Trt01An",
              "groupId": "AnlsGrouping_01_Trt01An_03"
            }
          ],
          "rawValue": "75.209302326",
          "formattedValue": "75.2"
        },
        {
          "operationId": "Mth_06_03_SD",
          "resultGroups": [
            {
              "groupingId": "AnlsGrouping_01_Trt01An",
              "groupId": "AnlsGrouping_01_Trt01An_01"
            }
          ],
          "rawValue": "8.2860505995",
          "formattedValue": "(8.29)"
        },
        {
          "operationId": "Mth_06_03_SD",
          "resultGroups": [
            {
              "groupingId": "AnlsGrouping_01_Trt01An",
              "groupId": "AnlsGrouping_01_Trt01An_02"
            }
          ],
          "rawValue": "7.8860938487",
          "formattedValue": "(7.89)"
        },
        {
          "operationId": "Mth_06_03_SD",
          "resultGroups": [
            {
              "groupingId": "AnlsGrouping_01_Trt01An",
              "groupId": "AnlsGrouping_01_Trt01An_03"
            }
          ],
          "rawValue": "8.5901671271",
          "formattedValue": "(8.59)"
        },
        {
          "operationId": "Mth_06_04_Median",
          "resultGroups": [
            {
              "groupingId": "AnlsGrouping_01_Trt01An",
              "groupId": "AnlsGrouping_01_Trt01An_01"
            }
          ],
          "rawValue": "77.5",
          "formattedValue": "77.5"
        },
        {
          "operationId": "Mth_06_04_Median",
          "resultGroups": [
            {
              "groupingId": "AnlsGrouping_01_Trt01An",
              "groupId": "AnlsGrouping_01_Trt01An_02"
            }
          ],
          "rawValue": "76",
          "formattedValue": "76.0"
        },
        {
          "operationId": "Mth_06_04_Median",
          "resultGroups": [
            {
              "groupingId": "AnlsGrouping_01_Trt01An",
              "groupId": "AnlsGrouping_01_Trt01An_03"
            }
          ],
          "rawValue": "76",
          "formattedValue": "76.0"
        },
        {
          "operationId": "Mth_06_07_Min",
          "resultGroups": [
            {
              "groupingId": "AnlsGrouping_01_Trt01An",
              "groupId": "AnlsGrouping_01_Trt01An_01"
            }
          ],
          "rawValue": "51",
          "formattedValue": "51"
        },
        {
          "operationId": "Mth_06_07_Min",
          "resultGroups": [
            {
              "groupingId": "AnlsGrouping_01_Trt01An",
              "groupId": "AnlsGrouping_01_Trt01An_02"
            }
          ],
          "rawValue": "56",
          "formattedValue": "56"
        },
        {
          "operationId": "Mth_06_07_Min",
          "resultGroups": [
            {
              "groupingId": "AnlsGrouping_01_Trt01An",
              "groupId": "AnlsGrouping_01_Trt01An_03"
            }
          ],
          "rawValue": "52",
          "formattedValue": "52"
        },
        {
          "operationId": "Mth_06_08_Max",
          "resultGroups": [
            {
              "groupingId": "AnlsGrouping_01_Trt01An",
              "groupId": "AnlsGrouping_01_Trt01An_01"
            }
          ],
          "rawValue": "88",
          "formattedValue": "88"
        },
        {
          "operationId": "Mth_06_08_Max",
          "resultGroups": [
            {
              "groupingId": "AnlsGrouping_01_Trt01An",
              "groupId": "AnlsGrouping_01_Trt01An_02"
            }
          ],
          "rawValue": "88",
          "formattedValue": "88"
        },
        {
          "operationId": "Mth_06_08_Max",
          "resultGroups": [
            {
              "groupingId": "AnlsGrouping_01_Trt01An",
              "groupId": "AnlsGrouping_01_Trt01An_03"
            }
          ],
          "rawValue": "89",
          "formattedValue": "89"
        }
      ]
    },
    {
      "name": "Summary of Age, Years",
      "id": "An_03_Total",
      "reason": {
        "controlledTerm": "SPECIFIED IN SAP"
      },
      "purpose": {
        "sponsorTermId": "TermEx01_01"
      },
      "methodId": "Mth_06",
      "version": 1,
      "categoryIds": [
        "ANSET_01",
        "ANSET_01_ANINT_04"
      ],
      "dataset": "ADSL",
      "variable": "AGE",
      "analysisSetId": "AnalysisSet_01",
      "dataSubsetId": "Dss_28",
      "results": [
        {
          "operationId": "Mth_06_01_n",
          "rawValue": "254",
          "formattedValue": "254"
        },
        {
          "operationId": "Mth_06_02_Mean",
          "rawValue": "75.086614173",
          "formattedValue": "75.1"
        },
        {
          "operationId": "Mth_06_03_SD",
          "rawValue": "8.2462338962",
          "formattedValue": "(8.25)"
        },
        {
          "operationId": "Mth_06_04_Median",
          "rawValue": "77",
          "formattedValue": "77.0"
        },
        {
          "operationId": "Mth_06_07_Min",
          "rawValue": "51",
          "formattedValue": "51"
        },
        {
          "operationId": "Mth_06_08_Max",
          "rawValue": "89",
          "formattedValue": "89"
        }
      ]
    },
    {
      "name": "Summary of Subjects by Treatment and Age groups (years), n (%)",
      "id": "An_04",
      "reason": {
        "controlledTerm": "SPECIFIED IN SAP"
      },
      "purpose": {
        "sponsorTermId": "TermEx01_01"
      },
      "methodId": "Mth_03p",
      "version": 1,
      "categoryIds": [
        "ANSET_01",
        "ANSET_01_ANINT_04"
      ],
      "dataset": "ADSL",
      "variable": "USUBJID",
      "analysisSetId": "AnalysisSet_01",
      "orderedGroupings": [
        {
          "order": 1,
          "groupingId": "AnlsGrouping_01_Trt01An",
          "resultsByGroup": true
        },
        {
          "order": 2,
          "groupingId": "AnlsGrouping_03_Agegr1N",
          "resultsByGroup": true
        }
      ],
      "referencedAnalysisOperations": [
        {
          "referencedOperationRelationshipId": "Mth_03p_pct_NUM",
          "analysisId": "An_04"
        },
        {
          "referencedOperationRelationshipId": "Mth_03p_pct_DEN",
          "analysisId": "An_01"
        }
      ],
      "results": [
        {
          "operationId": "Mth_03_01_n",
          "resultGroups": [
            {
              "groupingId": "AnlsGrouping_01_Trt01An",
              "groupId": "AnlsGrouping_01_Trt01An_01"
            },
            {
              "groupingId": "AnlsGrouping_03_Agegr1N",
              "groupId": "AnlsGrouping_03_Agegr1N_01"
            }
          ],
          "rawValue": "8",
          "formattedValue": "8"
        },
        {
          "operationId": "Mth_03_01_n",
          "resultGroups": [
            {
              "groupingId": "AnlsGrouping_01_Trt01An",
              "groupId": "AnlsGrouping_01_Trt01An_01"
            },
            {
              "groupingId": "AnlsGrouping_03_Agegr1N",
              "groupId": "AnlsGrouping_03_Agegr1N_02"
            }
          ],
          "rawValue": "47",
          "formattedValue": "47"
        },
        {
          "operationId": "Mth_03_01_n",
          "resultGroups": [
            {
              "groupingId": "AnlsGrouping_01_Trt01An",
              "groupId": "AnlsGrouping_01_Trt01An_01"
            },
            {
              "groupingId": "AnlsGrouping_03_Agegr1N",
              "groupId": "AnlsGrouping_03_Agegr1N_03"
            }
          ],
          "rawValue": "29",
          "formattedValue": "29"
        },
        {
          "operationId": "Mth_03_01_n",
          "resultGroups": [
            {
              "groupingId": "AnlsGrouping_01_Trt01An",
              "groupId": "AnlsGrouping_01_Trt01An_02"
            },
            {
              "groupingId": "AnlsGrouping_03_Agegr1N",
              "groupId": "AnlsGrouping_03_Agegr1N_01"
            }
          ],
          "rawValue": "11",
          "formattedValue": "11"
        },
        {
          "operationId": "Mth_03_01_n",
          "resultGroups": [
            {
              "groupingId": "AnlsGrouping_01_Trt01An",
              "groupId": "AnlsGrouping_01_Trt01An_02"
            },
            {
              "groupingId": "AnlsGrouping_03_Agegr1N",
              "groupId": "AnlsGrouping_03_Agegr1N_02"
            }
          ],
          "rawValue": "55",
          "formattedValue": "55"
        },
        {
          "operationId": "Mth_03_01_n",
          "resultGroups": [
            {
              "groupingId": "AnlsGrouping_01_Trt01An",
              "groupId": "AnlsGrouping_01_Trt01An_02"
            },
            {
              "groupingId": "AnlsGrouping_03_Agegr1N",
              "groupId": "AnlsGrouping_03_Agegr1N_03"
            }
          ],
          "rawValue": "18",
          "formattedValue": "18"
        },
        {
          "operationId": "Mth_03_01_n",
          "resultGroups": [
            {
              "groupingId": "AnlsGrouping_01_Trt01An",
              "groupId": "AnlsGrouping_01_Trt01An_03"
            },
            {
              "groupingId": "AnlsGrouping_03_Agegr1N",
              "groupId": "AnlsGrouping_03_Agegr1N_01"
            }
          ],
          "rawValue": "14",
          "formattedValue": "14"
        },
        {
          "operationId": "Mth_03_01_n",
          "resultGroups": [
            {
              "groupingId": "AnlsGrouping_01_Trt01An",
              "groupId": "AnlsGrouping_01_Trt01An_03"
            },
            {
              "groupingId": "AnlsGrouping_03_Agegr1N",
              "groupId": "AnlsGrouping_03_Agegr1N_02"
            }
          ],
          "rawValue": "42",
          "formattedValue": "42"
        },
        {
          "operationId": "Mth_03_01_n",
          "resultGroups": [
            {
              "groupingId": "AnlsGrouping_01_Trt01An",
              "groupId": "AnlsGrouping_01_Trt01An_03"
            },
            {
              "groupingId": "AnlsGrouping_03_Agegr1N",
              "groupId": "AnlsGrouping_03_Agegr1N_03"
            }
          ],
          "rawValue": "30",
          "formattedValue": "30"
        },
        {
          "operationId": "Mth_03_02_%",
          "resultGroups": [
            {
              "groupingId": "AnlsGrouping_01_Trt01An",
              "groupId": "AnlsGrouping_01_Trt01An_01"
            },
            {
              "groupingId": "AnlsGrouping_03_Agegr1N",
              "groupId": "AnlsGrouping_03_Agegr1N_01"
            }
          ],
          "rawValue": "9.5238095238",
          "formattedValue": "(9.5)"
        },
        {
          "operationId": "Mth_03_02_%",
          "resultGroups": [
            {
              "groupingId": "AnlsGrouping_01_Trt01An",
              "groupId": "AnlsGrouping_01_Trt01An_01"
            },
            {
              "groupingId": "AnlsGrouping_03_Agegr1N",
              "groupId": "AnlsGrouping_03_Agegr1N_02"
            }
          ],
          "rawValue": "55.952380952",
          "formattedValue": "(56.0)"
        },
        {
          "operationId": "Mth_03_02_%",
          "resultGroups": [
            {
              "groupingId": "AnlsGrouping_01_Trt01An",
              "groupId": "AnlsGrouping_01_Trt01An_01"
            },
            {
              "groupingId": "AnlsGrouping_03_Agegr1N",
              "groupId": "AnlsGrouping_03_Agegr1N_03"
            }
          ],
          "rawValue": "34.523809524",
          "formattedValue": "(34.5)"
        },
        {
          "operationId": "Mth_03_02_%",
          "resultGroups": [
            {
              "groupingId": "AnlsGrouping_01_Trt01An",
              "groupId": "AnlsGrouping_01_Trt01An_02"
            },
            {
              "groupingId": "AnlsGrouping_03_Agegr1N",
              "groupId": "AnlsGrouping_03_Agegr1N_01"
            }
          ],
          "rawValue": "13.095238095",
          "formattedValue": "(13.1)"
        },
        {
          "operationId": "Mth_03_02_%",
          "resultGroups": [
            {
              "groupingId": "AnlsGrouping_01_Trt01An",
              "groupId": "AnlsGrouping_01_Trt01An_02"
            },
            {
              "groupingId": "AnlsGrouping_03_Agegr1N",
              "groupId": "AnlsGrouping_03_Agegr1N_02"
            }
          ],
          "rawValue": "65.476190476",
          "formattedValue": "(65.5)"
        },
        {
          "operationId": "Mth_03_02_%",
          "resultGroups": [
            {
              "groupingId": "AnlsGrouping_01_Trt01An",
              "groupId": "AnlsGrouping_01_Trt01An_02"
            },
            {
              "groupingId": "AnlsGrouping_03_Agegr1N",
              "groupId": "AnlsGrouping_03_Agegr1N_03"
            }
          ],
          "rawValue": "21.428571429",
          "formattedValue": "(21.4)"
        },
        {
          "operationId": "Mth_03_02_%",
          "resultGroups": [
            {
              "groupingId": "AnlsGrouping_01_Trt01An",
              "groupId": "AnlsGrouping_01_Trt01An_03"
            },
            {
              "groupingId": "AnlsGrouping_03_Agegr1N",
              "groupId": "AnlsGrouping_03_Agegr1N_01"
            }
          ],
          "rawValue": "16.279069767",
          "formattedValue": "(16.3)"
        },
        {
          "operationId": "Mth_03_02_%",
          "resultGroups": [
            {
              "groupingId": "AnlsGrouping_01_Trt01An",
              "groupId": "AnlsGrouping_01_Trt01An_03"
            },
            {
              "groupingId": "AnlsGrouping_03_Agegr1N",
              "groupId": "AnlsGrouping_03_Agegr1N_02"
            }
          ],
          "rawValue": "48.837209302",
          "formattedValue": "(48.8)"
        },
        {
          "operationId": "Mth_03_02_%",
          "resultGroups": [
            {
              "groupingId": "AnlsGrouping_01_Trt01An",
              "groupId": "AnlsGrouping_01_Trt01An_03"
            },
            {
              "groupingId": "AnlsGrouping_03_Agegr1N",
              "groupId": "AnlsGrouping_03_Agegr1N_03"
            }
          ],
          "rawValue": "34.88372093",
          "formattedValue": "(34.9)"
        }
      ]
    },
    {
      "name": "Summary of Subjects by Age groups (years), n (%)",
      "id": "An_04_Total",
      "reason": {
        "controlledTerm": "SPECIFIED IN SAP"
      },
      "purpose": {
        "sponsorTermId": "TermEx01_01"
      },
      "methodId": "Mth_03pt",
      "version": 1,
      "categoryIds": [
        "ANSET_01",
        "ANSET_01_ANINT_04"
      ],
      "dataset": "ADSL",
      "variable": "USUBJID",
      "analysisSetId": "AnalysisSet_01",
      "dataSubsetId": "Dss_28",
      "orderedGroupings": [
        {
          "order": 1,
          "groupingId": "AnlsGrouping_03_Agegr1N",
          "resultsByGroup": true
        }
      ],
      "referencedAnalysisOperations": [
        {
          "referencedOperationRelationshipId": "Mth_03pt_pct_NUM",
          "analysisId": "An_04_Total"
        },
        {
          "referencedOperationRelationshipId": "Mth_03pt_pct_DEN",
          "analysisId": "An_01"
        }
      ],
      "results": [
        {
          "operationId": "Mth_03_01_n",
          "resultGroups": [
            {
              "groupingId": "AnlsGrouping_03_Agegr1N",
              "groupId": "AnlsGrouping_03_Agegr1N_01"
            }
          ],
          "rawValue": "33",
          "formattedValue": "33"
        },
        {
          "operationId": "Mth_03_01_n",
          "resultGroups": [
            {
              "groupingId": "AnlsGrouping_03_Agegr1N",
              "groupId": "AnlsGrouping_03_Agegr1N_02"
            }
          ],
          "rawValue": "144",
          "formattedValue": "144"
        },
        {
          "operationId": "Mth_03_01_n",
          "resultGroups": [
            {
              "groupingId": "AnlsGrouping_03_Agegr1N",
              "groupId": "AnlsGrouping_03_Agegr1N_03"
            }
          ],
          "rawValue": "77",
          "formattedValue": "77"
        },
        {
          "operationId": "Mth_03_02_%",
          "resultGroups": [
            {
              "groupingId": "AnlsGrouping_03_Agegr1N",
              "groupId": "AnlsGrouping_03_Agegr1N_01"
            }
          ],
          "rawValue": "12.992125984",
          "formattedValue": "(13.0)"
        },
        {
          "operationId": "Mth_03_02_%",
          "resultGroups": [
            {
              "groupingId": "AnlsGrouping_03_Agegr1N",
              "groupId": "AnlsGrouping_03_Agegr1N_02"
            }
          ],
          "rawValue": "56.692913386",
          "formattedValue": "(56.7)"
        },
        {
          "operationId": "Mth_03_02_%",
          "resultGroups": [
            {
              "groupingId": "AnlsGrouping_03_Agegr1N",
              "groupId": "AnlsGrouping_03_Agegr1N_03"
            }
          ],
          "rawValue": "30.31496063",
          "formattedValue": "(30.3)"
        }
      ]
    },
    {
      "name": "Summary of Subjects by Treatment and Race, n (%)",
      "id": "An_05",
      "reason": {
        "controlledTerm": "SPECIFIED IN SAP"
      },
      "purpose": {
        "sponsorTermId": "TermEx01_01"
      },
      "methodId": "Mth_03p",
      "version": 1,
      "categoryIds": [
        "ANSET_01",
        "ANSET_01_ANINT_04"
      ],
      "dataset": "ADSL",
      "variable": "USUBJID",
      "analysisSetId": "AnalysisSet_01",
      "orderedGroupings": [
        {
          "order": 1,
          "groupingId": "AnlsGrouping_01_Trt01An",
          "resultsByGroup": true
        },
        {
          "order": 2,
          "groupingId": "AnlsGrouping_04_Arace",
          "resultsByGroup": true
        }
      ],
      "referencedAnalysisOperations": [
        {
          "referencedOperationRelationshipId": "Mth_03p_pct_NUM",
          "analysisId": "An_05"
        },
        {
          "referencedOperationRelationshipId": "Mth_03p_pct_DEN",
          "analysisId": "An_01"
        }
      ],
      "results": [
        {
          "operationId": "Mth_03_01_n",
          "resultGroups": [
            {
              "groupingId": "AnlsGrouping_01_Trt01An",
              "groupId": "AnlsGrouping_01_Trt01An_01"
            },
            {
              "groupingId": "AnlsGrouping_04_Arace",
              "groupId": "AnlsGrouping_04_Arace_02"
            }
          ],
          "rawValue": "0",
          "formattedValue": "0"
        },
        {
          "operationId": "Mth_03_01_n",
          "resultGroups": [
            {
              "groupingId": "AnlsGrouping_01_Trt01An",
              "groupId": "AnlsGrouping_01_Trt01An_01"
            },
            {
              "groupingId": "AnlsGrouping_04_Arace",
              "groupId": "AnlsGrouping_04_Arace_03"
            }
          ],
          "rawValue": "6",
          "formattedValue": "6"
        },
        {
          "operationId": "Mth_03_01_n",
          "resultGroups": [
            {
              "groupingId": "AnlsGrouping_01_Trt01An",
              "groupId": "AnlsGrouping_01_Trt01An_01"
            },
            {
              "groupingId": "AnlsGrouping_04_Arace",
              "groupId": "AnlsGrouping_04_Arace_03"
            }
          ],
          "rawValue": "0",
          "formattedValue": "0"
        },
        {
          "operationId": "Mth_03_01_n",
          "resultGroups": [
            {
              "groupingId": "AnlsGrouping_01_Trt01An",
              "groupId": "AnlsGrouping_01_Trt01An_01"
            },
            {
              "groupingId": "AnlsGrouping_04_Arace",
              "groupId": "AnlsGrouping_04_Arace_04"
            }
          ],
          "rawValue": "0",
          "formattedValue": "0"
        },
        {
          "operationId": "Mth_03_01_n",
          "resultGroups": [
            {
              "groupingId": "AnlsGrouping_01_Trt01An",
              "groupId": "AnlsGrouping_01_Trt01An_01"
            },
            {
              "groupingId": "AnlsGrouping_04_Arace",
              "groupId": "AnlsGrouping_04_Arace_04"
            }
          ],
          "rawValue": "0",
          "formattedValue": "0"
        },
        {
          "operationId": "Mth_03_01_n",
          "resultGroups": [
            {
              "groupingId": "AnlsGrouping_01_Trt01An",
              "groupId": "AnlsGrouping_01_Trt01An_01"
            },
            {
              "groupingId": "AnlsGrouping_04_Arace",
              "groupId": "AnlsGrouping_04_Arace_05"
            }
          ],
          "rawValue": "78",
          "formattedValue": "78"
        },
        {
          "operationId": "Mth_03_01_n",
          "resultGroups": [
            {
              "groupingId": "AnlsGrouping_01_Trt01An",
              "groupId": "AnlsGrouping_01_Trt01An_01"
            },
            {
              "groupingId": "AnlsGrouping_04_Arace",
              "groupId": "AnlsGrouping_04_Arace_06"
            }
          ],
          "rawValue": "0",
          "formattedValue": "0"
        },
        {
          "operationId": "Mth_03_01_n",
          "resultGroups": [
            {
              "groupingId": "AnlsGrouping_01_Trt01An",
              "groupId": "AnlsGrouping_01_Trt01An_02"
            },
            {
              "groupingId": "AnlsGrouping_04_Arace",
              "groupId": "AnlsGrouping_04_Arace_01"
            }
          ],
          "rawValue": "1",
          "formattedValue": "1"
        },
        {
          "operationId": "Mth_03_01_n",
          "resultGroups": [
            {
              "groupingId": "AnlsGrouping_01_Trt01An",
              "groupId": "AnlsGrouping_01_Trt01An_02"
            },
            {
              "groupingId": "AnlsGrouping_04_Arace",
              "groupId": "AnlsGrouping_04_Arace_02"
            }
          ],
          "rawValue": "0",
          "formattedValue": "0"
        },
        {
          "operationId": "Mth_03_01_n",
          "resultGroups": [
            {
              "groupingId": "AnlsGrouping_01_Trt01An",
              "groupId": "AnlsGrouping_01_Trt01An_02"
            },
            {
              "groupingId": "AnlsGrouping_04_Arace",
              "groupId": "AnlsGrouping_04_Arace_03"
            }
          ],
          "rawValue": "9",
          "formattedValue": "9"
        },
        {
          "operationId": "Mth_03_01_n",
          "resultGroups": [
            {
              "groupingId": "AnlsGrouping_01_Trt01An",
              "groupId": "AnlsGrouping_01_Trt01An_02"
            },
            {
              "groupingId": "AnlsGrouping_04_Arace",
              "groupId": "AnlsGrouping_04_Arace_03"
            }
          ],
          "rawValue": "0",
          "formattedValue": "0"
        },
        {
          "operationId": "Mth_03_01_n",
          "resultGroups": [
            {
              "groupingId": "AnlsGrouping_01_Trt01An",
              "groupId": "AnlsGrouping_01_Trt01An_02"
            },
            {
              "groupingId": "AnlsGrouping_04_Arace",
              "groupId": "AnlsGrouping_04_Arace_04"
            }
          ],
          "rawValue": "0",
          "formattedValue": "0"
        },
        {
          "operationId": "Mth_03_01_n",
          "resultGroups": [
            {
              "groupingId": "AnlsGrouping_01_Trt01An",
              "groupId": "AnlsGrouping_01_Trt01An_02"
            },
            {
              "groupingId": "AnlsGrouping_04_Arace",
              "groupId": "AnlsGrouping_04_Arace_05"
            }
          ],
          "rawValue": "74",
          "formattedValue": "74"
        },
        {
          "operationId": "Mth_03_01_n",
          "resultGroups": [
            {
              "groupingId": "AnlsGrouping_01_Trt01An",
              "groupId": "AnlsGrouping_01_Trt01An_02"
            },
            {
              "groupingId": "AnlsGrouping_04_Arace",
              "groupId": "AnlsGrouping_04_Arace_06"
            }
          ],
          "rawValue": "0",
          "formattedValue": "0"
        },
        {
          "operationId": "Mth_03_01_n",
          "resultGroups": [
            {
              "groupingId": "AnlsGrouping_01_Trt01An",
              "groupId": "AnlsGrouping_01_Trt01An_03"
            },
            {
              "groupingId": "AnlsGrouping_04_Arace",
              "groupId": "AnlsGrouping_04_Arace_02"
            }
          ],
          "rawValue": "0",
          "formattedValue": "0"
        },
        {
          "operationId": "Mth_03_01_n",
          "resultGroups": [
            {
              "groupingId": "AnlsGrouping_01_Trt01An",
              "groupId": "AnlsGrouping_01_Trt01An_03"
            },
            {
              "groupingId": "AnlsGrouping_04_Arace",
              "groupId": "AnlsGrouping_04_Arace_03"
            }
          ],
          "rawValue": "8",
          "formattedValue": "8"
        },
        {
          "operationId": "Mth_03_01_n",
          "resultGroups": [
            {
              "groupingId": "AnlsGrouping_01_Trt01An",
              "groupId": "AnlsGrouping_01_Trt01An_03"
            },
            {
              "groupingId": "AnlsGrouping_04_Arace",
              "groupId": "AnlsGrouping_04_Arace_03"
            }
          ],
          "rawValue": "0",
          "formattedValue": "0"
        },
        {
          "operationId": "Mth_03_01_n",
          "resultGroups": [
            {
              "groupingId": "AnlsGrouping_01_Trt01An",
              "groupId": "AnlsGrouping_01_Trt01An_03"
            },
            {
              "groupingId": "AnlsGrouping_04_Arace",
              "groupId": "AnlsGrouping_04_Arace_04"
            }
          ],
          "rawValue": "0",
          "formattedValue": "0"
        },
        {
          "operationId": "Mth_03_01_n",
          "resultGroups": [
            {
              "groupingId": "AnlsGrouping_01_Trt01An",
              "groupId": "AnlsGrouping_01_Trt01An_03"
            },
            {
              "groupingId": "AnlsGrouping_04_Arace",
              "groupId": "AnlsGrouping_04_Arace_04"
            }
          ],
          "rawValue": "0",
          "formattedValue": "0"
        },
        {
          "operationId": "Mth_03_01_n",
          "resultGroups": [
            {
              "groupingId": "AnlsGrouping_01_Trt01An",
              "groupId": "AnlsGrouping_01_Trt01An_03"
            },
            {
              "groupingId": "AnlsGrouping_04_Arace",
              "groupId": "AnlsGrouping_04_Arace_05"
            }
          ],
          "rawValue": "78",
          "formattedValue": "78"
        },
        {
          "operationId": "Mth_03_01_n",
          "resultGroups": [
            {
              "groupingId": "AnlsGrouping_01_Trt01An",
              "groupId": "AnlsGrouping_01_Trt01An_03"
            },
            {
              "groupingId": "AnlsGrouping_04_Arace",
              "groupId": "AnlsGrouping_04_Arace_06"
            }
          ],
          "rawValue": "0",
          "formattedValue": "0"
        },
        {
          "operationId": "Mth_03_02_%",
          "resultGroups": [
            {
              "groupingId": "AnlsGrouping_01_Trt01An",
              "groupId": "AnlsGrouping_01_Trt01An_01"
            },
            {
              "groupingId": "AnlsGrouping_04_Arace",
              "groupId": "AnlsGrouping_04_Arace_02"
            }
          ],
          "rawValue": "0",
          "formattedValue": "(0.0)"
        },
        {
          "operationId": "Mth_03_02_%",
          "resultGroups": [
            {
              "groupingId": "AnlsGrouping_01_Trt01An",
              "groupId": "AnlsGrouping_01_Trt01An_01"
            },
            {
              "groupingId": "AnlsGrouping_04_Arace",
              "groupId": "AnlsGrouping_04_Arace_03"
            }
          ],
          "rawValue": "7.1428571429",
          "formattedValue": "(7.1)"
        },
        {
          "operationId": "Mth_03_02_%",
          "resultGroups": [
            {
              "groupingId": "AnlsGrouping_01_Trt01An",
              "groupId": "AnlsGrouping_01_Trt01An_01"
            },
            {
              "groupingId": "AnlsGrouping_04_Arace",
              "groupId": "AnlsGrouping_04_Arace_03"
            }
          ],
          "rawValue": "0",
          "formattedValue": "(0.0)"
        },
        {
          "operationId": "Mth_03_02_%",
          "resultGroups": [
            {
              "groupingId": "AnlsGrouping_01_Trt01An",
              "groupId": "AnlsGrouping_01_Trt01An_01"
            },
            {
              "groupingId": "AnlsGrouping_04_Arace",
              "groupId": "AnlsGrouping_04_Arace_04"
            }
          ],
          "rawValue": "0",
          "formattedValue": "(0.0)"
        },
        {
          "operationId": "Mth_03_02_%",
          "resultGroups": [
            {
              "groupingId": "AnlsGrouping_01_Trt01An",
              "groupId": "AnlsGrouping_01_Trt01An_01"
            },
            {
              "groupingId": "AnlsGrouping_04_Arace",
              "groupId": "AnlsGrouping_04_Arace_04"
            }
          ],
          "rawValue": "0",
          "formattedValue": "(0.0)"
        },
        {
          "operationId": "Mth_03_02_%",
          "resultGroups": [
            {
              "groupingId": "AnlsGrouping_01_Trt01An",
              "groupId": "AnlsGrouping_01_Trt01An_01"
            },
            {
              "groupingId": "AnlsGrouping_04_Arace",
              "groupId": "AnlsGrouping_04_Arace_05"
            }
          ],
          "rawValue": "92.857142857",
          "formattedValue": "(92.9)"
        },
        {
          "operationId": "Mth_03_02_%",
          "resultGroups": [
            {
              "groupingId": "AnlsGrouping_01_Trt01An",
              "groupId": "AnlsGrouping_01_Trt01An_01"
            },
            {
              "groupingId": "AnlsGrouping_04_Arace",
              "groupId": "AnlsGrouping_04_Arace_06"
            }
          ],
          "rawValue": "0",
          "formattedValue": "(0.0)"
        },
        {
          "operationId": "Mth_03_02_%",
          "resultGroups": [
            {
              "groupingId": "AnlsGrouping_01_Trt01An",
              "groupId": "AnlsGrouping_01_Trt01An_02"
            },
            {
              "groupingId": "AnlsGrouping_04_Arace",
              "groupId": "AnlsGrouping_04_Arace_01"
            }
          ],
          "rawValue": "1.1904761905",
          "formattedValue": "(1.2)"
        },
        {
          "operationId": "Mth_03_02_%",
          "resultGroups": [
            {
              "groupingId": "AnlsGrouping_01_Trt01An",
              "groupId": "AnlsGrouping_01_Trt01An_02"
            },
            {
              "groupingId": "AnlsGrouping_04_Arace",
              "groupId": "AnlsGrouping_04_Arace_02"
            }
          ],
          "rawValue": "0",
          "formattedValue": "(0.0)"
        },
        {
          "operationId": "Mth_03_02_%",
          "resultGroups": [
            {
              "groupingId": "AnlsGrouping_01_Trt01An",
              "groupId": "AnlsGrouping_01_Trt01An_02"
            },
            {
              "groupingId": "AnlsGrouping_04_Arace",
              "groupId": "AnlsGrouping_04_Arace_03"
            }
          ],
          "rawValue": "10.714285714",
          "formattedValue": "(10.7)"
        },
        {
          "operationId": "Mth_03_02_%",
          "resultGroups": [
            {
              "groupingId": "AnlsGrouping_01_Trt01An",
              "groupId": "AnlsGrouping_01_Trt01An_02"
            },
            {
              "groupingId": "AnlsGrouping_04_Arace",
              "groupId": "AnlsGrouping_04_Arace_03"
            }
          ],
          "rawValue": "0",
          "formattedValue": "(0.0)"
        },
        {
          "operationId": "Mth_03_02_%",
          "resultGroups": [
            {
              "groupingId": "AnlsGrouping_01_Trt01An",
              "groupId": "AnlsGrouping_01_Trt01An_02"
            },
            {
              "groupingId": "AnlsGrouping_04_Arace",
              "groupId": "AnlsGrouping_04_Arace_04"
            }
          ],
          "rawValue": "0",
          "formattedValue": "(0.0)"
        },
        {
          "operationId": "Mth_03_02_%",
          "resultGroups": [
            {
              "groupingId": "AnlsGrouping_01_Trt01An",
              "groupId": "AnlsGrouping_01_Trt01An_02"
            },
            {
              "groupingId": "AnlsGrouping_04_Arace",
              "groupId": "AnlsGrouping_04_Arace_05"
            }
          ],
          "rawValue": "88.095238095",
          "formattedValue": "(88.1)"
        },
        {
          "operationId": "Mth_03_02_%",
          "resultGroups": [
            {
              "groupingId": "AnlsGrouping_01_Trt01An",
              "groupId": "AnlsGrouping_01_Trt01An_02"
            },
            {
              "groupingId": "AnlsGrouping_04_Arace",
              "groupId": "AnlsGrouping_04_Arace_06"
            }
          ],
          "rawValue": "0",
          "formattedValue": "(0.0)"
        },
        {
          "operationId": "Mth_03_02_%",
          "resultGroups": [
            {
              "groupingId": "AnlsGrouping_01_Trt01An",
              "groupId": "AnlsGrouping_01_Trt01An_03"
            },
            {
              "groupingId": "AnlsGrouping_04_Arace",
              "groupId": "AnlsGrouping_04_Arace_02"
            }
          ],
          "rawValue": "0",
          "formattedValue": "(0.0)"
        },
        {
          "operationId": "Mth_03_02_%",
          "resultGroups": [
            {
              "groupingId": "AnlsGrouping_01_Trt01An",
              "groupId": "AnlsGrouping_01_Trt01An_03"
            },
            {
              "groupingId": "AnlsGrouping_04_Arace",
              "groupId": "AnlsGrouping_04_Arace_03"
            }
          ],
          "rawValue": "9.3023255814",
          "formattedValue": "(9.3)"
        },
        {
          "operationId": "Mth_03_02_%",
          "resultGroups": [
            {
              "groupingId": "AnlsGrouping_01_Trt01An",
              "groupId": "AnlsGrouping_01_Trt01An_03"
            },
            {
              "groupingId": "AnlsGrouping_04_Arace",
              "groupId": "AnlsGrouping_04_Arace_03"
            }
          ],
          "rawValue": "0",
          "formattedValue": "(0.0)"
        },
        {
          "operationId": "Mth_03_02_%",
          "resultGroups": [
            {
              "groupingId": "AnlsGrouping_01_Trt01An",
              "groupId": "AnlsGrouping_01_Trt01An_03"
            },
            {
              "groupingId": "AnlsGrouping_04_Arace",
              "groupId": "AnlsGrouping_04_Arace_04"
            }
          ],
          "rawValue": "0",
          "formattedValue": "(0.0)"
        },
        {
          "operationId": "Mth_03_02_%",
          "resultGroups": [
            {
              "groupingId": "AnlsGrouping_01_Trt01An",
              "groupId": "AnlsGrouping_01_Trt01An_03"
            },
            {
              "groupingId": "AnlsGrouping_04_Arace",
              "groupId": "AnlsGrouping_04_Arace_04"
            }
          ],
          "rawValue": "0",
          "formattedValue": "(0.0)"
        },
        {
          "operationId": "Mth_03_02_%",
          "resultGroups": [
            {
              "groupingId": "AnlsGrouping_01_Trt01An",
              "groupId": "AnlsGrouping_01_Trt01An_03"
            },
            {
              "groupingId": "AnlsGrouping_04_Arace",
              "groupId": "AnlsGrouping_04_Arace_05"
            }
          ],
          "rawValue": "90.697674419",
          "formattedValue": "(90.7)"
        },
        {
          "operationId": "Mth_03_02_%",
          "resultGroups": [
            {
              "groupingId": "AnlsGrouping_01_Trt01An",
              "groupId": "AnlsGrouping_01_Trt01An_03"
            },
            {
              "groupingId": "AnlsGrouping_04_Arace",
              "groupId": "AnlsGrouping_04_Arace_06"
            }
          ],
          "rawValue": "0",
          "formattedValue": "(0.0)"
        }
      ]
    },
    {
      "name": "Summary of Subjects by Race, n (%)",
      "id": "An_05_Total",
      "reason": {
        "controlledTerm": "SPECIFIED IN SAP"
      },
      "purpose": {
        "sponsorTermId": "TermEx01_01"
      },
      "methodId": "Mth_03pt",
      "version": 1,
      "categoryIds": [
        "ANSET_01",
        "ANSET_01_ANINT_04"
      ],
      "dataset": "ADSL",
      "variable": "USUBJID",
      "analysisSetId": "AnalysisSet_01",
      "dataSubsetId": "Dss_28",
      "orderedGroupings": [
        {
          "order": 1,
          "groupingId": "AnlsGrouping_04_Arace",
          "resultsByGroup": true
        }
      ],
      "referencedAnalysisOperations": [
        {
          "referencedOperationRelationshipId": "Mth_03pt_pct_NUM",
          "analysisId": "An_05_Total"
        },
        {
          "referencedOperationRelationshipId": "Mth_03pt_pct_DEN",
          "analysisId": "An_01"
        }
      ],
      "results": [
        {
          "operationId": "Mth_03_01_n",
          "resultGroups": [
            {
              "groupingId": "AnlsGrouping_04_Arace",
              "groupId": "AnlsGrouping_04_Arace_01"
            }
          ],
          "rawValue": "1",
          "formattedValue": "1"
        },
        {
          "operationId": "Mth_03_01_n",
          "resultGroups": [
            {
              "groupingId": "AnlsGrouping_04_Arace",
              "groupId": "AnlsGrouping_04_Arace_02"
            }
          ],
          "rawValue": "0",
          "formattedValue": "0"
        },
        {
          "operationId": "Mth_03_01_n",
          "resultGroups": [
            {
              "groupingId": "AnlsGrouping_04_Arace",
              "groupId": "AnlsGrouping_04_Arace_03"
            }
          ],
          "rawValue": "23",
          "formattedValue": "23"
        },
        {
          "operationId": "Mth_03_01_n",
          "resultGroups": [
            {
              "groupingId": "AnlsGrouping_04_Arace",
              "groupId": "AnlsGrouping_04_Arace_04"
            }
          ],
          "rawValue": "0",
          "formattedValue": "0"
        },
        {
          "operationId": "Mth_03_01_n",
          "resultGroups": [
            {
              "groupingId": "AnlsGrouping_04_Arace",
              "groupId": "AnlsGrouping_04_Arace_05"
            }
          ],
          "rawValue": "230",
          "formattedValue": "230"
        },
        {
          "operationId": "Mth_03_01_n",
          "resultGroups": [
            {
              "groupingId": "AnlsGrouping_04_Arace",
              "groupId": "AnlsGrouping_04_Arace_06"
            }
          ],
          "rawValue": "0",
          "formattedValue": "0"
        },
        {
          "operationId": "Mth_03_01_n",
          "resultGroups": [
            {
              "groupingId": "AnlsGrouping_04_Arace",
              "groupId": "AnlsGrouping_04_Arace_07"
            }
          ],
          "rawValue": "0",
          "formattedValue": "0"
        },
        {
          "operationId": "Mth_03_01_n",
          "resultGroups": [
            {
              "groupingId": "AnlsGrouping_04_Arace",
              "groupId": "AnlsGrouping_04_Arace_08"
            }
          ],
          "rawValue": "0",
          "formattedValue": "0"
        },
        {
          "operationId": "Mth_03_02_%",
          "resultGroups": [
            {
              "groupingId": "AnlsGrouping_04_Arace",
              "groupId": "AnlsGrouping_04_Arace_01"
            }
          ],
          "rawValue": "0.3937007874",
          "formattedValue": "(0.4)"
        },
        {
          "operationId": "Mth_03_02_%",
          "resultGroups": [
            {
              "groupingId": "AnlsGrouping_04_Arace",
              "groupId": "AnlsGrouping_04_Arace_02"
            }
          ],
          "rawValue": "0",
          "formattedValue": "(0.0)"
        },
        {
          "operationId": "Mth_03_02_%",
          "resultGroups": [
            {
              "groupingId": "AnlsGrouping_04_Arace",
              "groupId": "AnlsGrouping_04_Arace_03"
            }
          ],
          "rawValue": "9.0551181102",
          "formattedValue": "(9.1)"
        },
        {
          "operationId": "Mth_03_02_%",
          "resultGroups": [
            {
              "groupingId": "AnlsGrouping_04_Arace",
              "groupId": "AnlsGrouping_04_Arace_04"
            }
          ],
          "rawValue": "0",
          "formattedValue": "(0.0)"
        },
        {
          "operationId": "Mth_03_02_%",
          "resultGroups": [
            {
              "groupingId": "AnlsGrouping_04_Arace",
              "groupId": "AnlsGrouping_04_Arace_05"
            }
          ],
          "rawValue": "90.551181102",
          "formattedValue": "(90.6)"
        },
        {
          "operationId": "Mth_03_02_%",
          "resultGroups": [
            {
              "groupingId": "AnlsGrouping_04_Arace",
              "groupId": "AnlsGrouping_04_Arace_06"
            }
          ],
          "rawValue": "0",
          "formattedValue": "(0.0)"
        },
        {
          "operationId": "Mth_03_02_%",
          "resultGroups": [
            {
              "groupingId": "AnlsGrouping_04_Arace",
              "groupId": "AnlsGrouping_04_Arace_07"
            }
          ],
          "rawValue": "0",
          "formattedValue": "(0.0)"
        },
        {
          "operationId": "Mth_03_02_%",
          "resultGroups": [
            {
              "groupingId": "AnlsGrouping_04_Arace",
              "groupId": "AnlsGrouping_04_Arace_08"
            }
          ],
          "rawValue": "0",
          "formattedValue": "(0.0)"
        }
      ]
    },
    {
      "name": "Summary of Subjects by Treatment and Ethnicity, n (%)",
      "id": "An_06",
      "reason": {
        "controlledTerm": "SPECIFIED IN SAP"
      },
      "purpose": {
        "sponsorTermId": "TermEx01_01"
      },
      "methodId": "Mth_03p",
      "version": 1,
      "categoryIds": [
        "ANSET_01",
        "ANSET_01_ANINT_04"
      ],
      "dataset": "ADSL",
      "variable": "USUBJID",
      "analysisSetId": "AnalysisSet_01",
      "orderedGroupings": [
        {
          "order": 1,
          "groupingId": "AnlsGrouping_01_Trt01An",
          "resultsByGroup": true
        },
        {
          "order": 2,
          "groupingId": "AnlsGrouping_05_Aethnic",
          "resultsByGroup": true
        }
      ],
      "referencedAnalysisOperations": [
        {
          "referencedOperationRelationshipId": "Mth_03p_pct_NUM",
          "analysisId": "An_06"
        },
        {
          "referencedOperationRelationshipId": "Mth_03p_pct_DEN",
          "analysisId": "An_01"
        }
      ],
      "results": [
        {
          "operationId": "Mth_03_01_n",
          "resultGroups": [
            {
              "groupingId": "AnlsGrouping_01_Trt01An",
              "groupId": "AnlsGrouping_01_Trt01An_01"
            },
            {
              "groupingId": "AnlsGrouping_05_Aethnic",
              "groupId": "AnlsGrouping_05_Aethnic_01"
            }
          ],
          "rawValue": "6",
          "formattedValue": "6"
        },
        {
          "operationId": "Mth_03_01_n",
          "resultGroups": [
            {
              "groupingId": "AnlsGrouping_01_Trt01An",
              "groupId": "AnlsGrouping_01_Trt01An_01"
            },
            {
              "groupingId": "AnlsGrouping_05_Aethnic",
              "groupId": "AnlsGrouping_05_Aethnic_01"
            }
          ],
          "rawValue": "78",
          "formattedValue": "78"
        },
        {
          "operationId": "Mth_03_01_n",
          "resultGroups": [
            {
              "groupingId": "AnlsGrouping_01_Trt01An",
              "groupId": "AnlsGrouping_01_Trt01An_01"
            },
            {
              "groupingId": "AnlsGrouping_05_Aethnic",
              "groupId": "AnlsGrouping_05_Aethnic_03"
            }
          ],
          "rawValue": "0",
          "formattedValue": "0"
        },
        {
          "operationId": "Mth_03_01_n",
          "resultGroups": [
            {
              "groupingId": "AnlsGrouping_01_Trt01An",
              "groupId": "AnlsGrouping_01_Trt01An_01"
            },
            {
              "groupingId": "AnlsGrouping_05_Aethnic",
              "groupId": "AnlsGrouping_05_Aethnic_04"
            }
          ],
          "rawValue": "0",
          "formattedValue": "0"
        },
        {
          "operationId": "Mth_03_01_n",
          "resultGroups": [
            {
              "groupingId": "AnlsGrouping_01_Trt01An",
              "groupId": "AnlsGrouping_01_Trt01An_02"
            },
            {
              "groupingId": "AnlsGrouping_05_Aethnic",
              "groupId": "AnlsGrouping_05_Aethnic_01"
            }
          ],
          "rawValue": "3",
          "formattedValue": "3"
        },
        {
          "operationId": "Mth_03_01_n",
          "resultGroups": [
            {
              "groupingId": "AnlsGrouping_01_Trt01An",
              "groupId": "AnlsGrouping_01_Trt01An_02"
            },
            {
              "groupingId": "AnlsGrouping_05_Aethnic",
              "groupId": "AnlsGrouping_05_Aethnic_01"
            }
          ],
          "rawValue": "81",
          "formattedValue": "81"
        },
        {
          "operationId": "Mth_03_01_n",
          "resultGroups": [
            {
              "groupingId": "AnlsGrouping_01_Trt01An",
              "groupId": "AnlsGrouping_01_Trt01An_02"
            },
            {
              "groupingId": "AnlsGrouping_05_Aethnic",
              "groupId": "AnlsGrouping_05_Aethnic_03"
            }
          ],
          "rawValue": "0",
          "formattedValue": "0"
        },
        {
          "operationId": "Mth_03_01_n",
          "resultGroups": [
            {
              "groupingId": "AnlsGrouping_01_Trt01An",
              "groupId": "AnlsGrouping_01_Trt01An_02"
            },
            {
              "groupingId": "AnlsGrouping_05_Aethnic",
              "groupId": "AnlsGrouping_05_Aethnic_04"
            }
          ],
          "rawValue": "0",
          "formattedValue": "0"
        },
        {
          "operationId": "Mth_03_01_n",
          "resultGroups": [
            {
              "groupingId": "AnlsGrouping_01_Trt01An",
              "groupId": "AnlsGrouping_01_Trt01An_03"
            },
            {
              "groupingId": "AnlsGrouping_05_Aethnic",
              "groupId": "AnlsGrouping_05_Aethnic_01"
            }
          ],
          "rawValue": "3",
          "formattedValue": "3"
        },
        {
          "operationId": "Mth_03_01_n",
          "resultGroups": [
            {
              "groupingId": "AnlsGrouping_01_Trt01An",
              "groupId": "AnlsGrouping_01_Trt01An_03"
            },
            {
              "groupingId": "AnlsGrouping_05_Aethnic",
              "groupId": "AnlsGrouping_05_Aethnic_01"
            }
          ],
          "rawValue": "83",
          "formattedValue": "83"
        },
        {
          "operationId": "Mth_03_01_n",
          "resultGroups": [
            {
              "groupingId": "AnlsGrouping_01_Trt01An",
              "groupId": "AnlsGrouping_01_Trt01An_03"
            },
            {
              "groupingId": "AnlsGrouping_05_Aethnic",
              "groupId": "AnlsGrouping_05_Aethnic_03"
            }
          ],
          "rawValue": "0",
          "formattedValue": "0"
        },
        {
          "operationId": "Mth_03_01_n",
          "resultGroups": [
            {
              "groupingId": "AnlsGrouping_01_Trt01An",
              "groupId": "AnlsGrouping_01_Trt01An_03"
            },
            {
              "groupingId": "AnlsGrouping_05_Aethnic",
              "groupId": "AnlsGrouping_05_Aethnic_04"
            }
          ],
          "rawValue": "0",
          "formattedValue": "0"
        },
        {
          "operationId": "Mth_03_02_%",
          "resultGroups": [
            {
              "groupingId": "AnlsGrouping_01_Trt01An",
              "groupId": "AnlsGrouping_01_Trt01An_01"
            },
            {
              "groupingId": "AnlsGrouping_05_Aethnic",
              "groupId": "AnlsGrouping_05_Aethnic_01"
            }
          ],
          "rawValue": "7.1428571429",
          "formattedValue": "(7.1)"
        },
        {
          "operationId": "Mth_03_02_%",
          "resultGroups": [
            {
              "groupingId": "AnlsGrouping_01_Trt01An",
              "groupId": "AnlsGrouping_01_Trt01An_01"
            },
            {
              "groupingId": "AnlsGrouping_05_Aethnic",
              "groupId": "AnlsGrouping_05_Aethnic_01"
            }
          ],
          "rawValue": "92.857142857",
          "formattedValue": "(92.9)"
        },
        {
          "operationId": "Mth_03_02_%",
          "resultGroups": [
            {
              "groupingId": "AnlsGrouping_01_Trt01An",
              "groupId": "AnlsGrouping_01_Trt01An_01"
            },
            {
              "groupingId": "AnlsGrouping_05_Aethnic",
              "groupId": "AnlsGrouping_05_Aethnic_03"
            }
          ],
          "rawValue": "0",
          "formattedValue": "(0.0)"
        },
        {
          "operationId": "Mth_03_02_%",
          "resultGroups": [
            {
              "groupingId": "AnlsGrouping_01_Trt01An",
              "groupId": "AnlsGrouping_01_Trt01An_01"
            },
            {
              "groupingId": "AnlsGrouping_05_Aethnic",
              "groupId": "AnlsGrouping_05_Aethnic_04"
            }
          ],
          "rawValue": "0",
          "formattedValue": "(0.0)"
        },
        {
          "operationId": "Mth_03_02_%",
          "resultGroups": [
            {
              "groupingId": "AnlsGrouping_01_Trt01An",
              "groupId": "AnlsGrouping_01_Trt01An_02"
            },
            {
              "groupingId": "AnlsGrouping_05_Aethnic",
              "groupId": "AnlsGrouping_05_Aethnic_01"
            }
          ],
          "rawValue": "3.5714285714",
          "formattedValue": "(3.6)"
        },
        {
          "operationId": "Mth_03_02_%",
          "resultGroups": [
            {
              "groupingId": "AnlsGrouping_01_Trt01An",
              "groupId": "AnlsGrouping_01_Trt01An_02"
            },
            {
              "groupingId": "AnlsGrouping_05_Aethnic",
              "groupId": "AnlsGrouping_05_Aethnic_01"
            }
          ],
          "rawValue": "96.428571429",
          "formattedValue": "(96.4)"
        },
        {
          "operationId": "Mth_03_02_%",
          "resultGroups": [
            {
              "groupingId": "AnlsGrouping_01_Trt01An",
              "groupId": "AnlsGrouping_01_Trt01An_02"
            },
            {
              "groupingId": "AnlsGrouping_05_Aethnic",
              "groupId": "AnlsGrouping_05_Aethnic_03"
            }
          ],
          "rawValue": "0",
          "formattedValue": "(0.0)"
        },
        {
          "operationId": "Mth_03_02_%",
          "resultGroups": [
            {
              "groupingId": "AnlsGrouping_01_Trt01An",
              "groupId": "AnlsGrouping_01_Trt01An_02"
            },
            {
              "groupingId": "AnlsGrouping_05_Aethnic",
              "groupId": "AnlsGrouping_05_Aethnic_04"
            }
          ],
          "rawValue": "0",
          "formattedValue": "(0.0)"
        },
        {
          "operationId": "Mth_03_02_%",
          "resultGroups": [
            {
              "groupingId": "AnlsGrouping_01_Trt01An",
              "groupId": "AnlsGrouping_01_Trt01An_03"
            },
            {
              "groupingId": "AnlsGrouping_05_Aethnic",
              "groupId": "AnlsGrouping_05_Aethnic_01"
            }
          ],
          "rawValue": "3.488372093",
          "formattedValue": "(3.5)"
        },
        {
          "operationId": "Mth_03_02_%",
          "resultGroups": [
            {
              "groupingId": "AnlsGrouping_01_Trt01An",
              "groupId": "AnlsGrouping_01_Trt01An_03"
            },
            {
              "groupingId": "AnlsGrouping_05_Aethnic",
              "groupId": "AnlsGrouping_05_Aethnic_01"
            }
          ],
          "rawValue": "96.511627907",
          "formattedValue": "(96.5)"
        },
        {
          "operationId": "Mth_03_02_%",
          "resultGroups": [
            {
              "groupingId": "AnlsGrouping_01_Trt01An",
              "groupId": "AnlsGrouping_01_Trt01An_03"
            },
            {
              "groupingId": "AnlsGrouping_05_Aethnic",
              "groupId": "AnlsGrouping_05_Aethnic_03"
            }
          ],
          "rawValue": "0",
          "formattedValue": "(0.0)"
        },
        {
          "operationId": "Mth_03_02_%",
          "resultGroups": [
            {
              "groupingId": "AnlsGrouping_01_Trt01An",
              "groupId": "AnlsGrouping_01_Trt01An_03"
            },
            {
              "groupingId": "AnlsGrouping_05_Aethnic",
              "groupId": "AnlsGrouping_05_Aethnic_04"
            }
          ],
          "rawValue": "0",
          "formattedValue": "(0.0)"
        }
      ]
    },
    {
      "name": "Summary of Subjects by Ethnicity, n (%)",
      "id": "An_06_Total",
      "reason": {
        "controlledTerm": "SPECIFIED IN SAP"
      },
      "purpose": {
        "sponsorTermId": "TermEx01_01"
      },
      "methodId": "Mth_03pt",
      "version": 1,
      "categoryIds": [
        "ANSET_01",
        "ANSET_01_ANINT_04"
      ],
      "dataset": "ADSL",
      "variable": "USUBJID",
      "analysisSetId": "AnalysisSet_01",
      "dataSubsetId": "Dss_28",
      "orderedGroupings": [
        {
          "order": 1,
          "groupingId": "AnlsGrouping_05_Aethnic",
          "resultsByGroup": true
        }
      ],
      "referencedAnalysisOperations": [
        {
          "referencedOperationRelationshipId": "Mth_03pt_pct_NUM",
          "analysisId": "An_06_Total"
        },
        {
          "referencedOperationRelationshipId": "Mth_03pt_pct_DEN",
          "analysisId": "An_01"
        }
      ],
      "results": [
        {
          "operationId": "Mth_03_01_n",
          "resultGroups": [
            {
              "groupingId": "AnlsGrouping_05_Aethnic",
              "groupId": "AnlsGrouping_05_Aethnic_01"
            }
          ],
          "rawValue": "12",
          "formattedValue": "12"
        },
        {
          "operationId": "Mth_03_01_n",
          "resultGroups": [
            {
              "groupingId": "AnlsGrouping_05_Aethnic",
              "groupId": "AnlsGrouping_05_Aethnic_01"
            }
          ],
          "rawValue": "242",
          "formattedValue": "242"
        },
        {
          "operationId": "Mth_03_01_n",
          "resultGroups": [
            {
              "groupingId": "AnlsGrouping_05_Aethnic",
              "groupId": "AnlsGrouping_05_Aethnic_03"
            }
          ],
          "rawValue": "0",
          "formattedValue": "0"
        },
        {
          "operationId": "Mth_03_01_n",
          "resultGroups": [
            {
              "groupingId": "AnlsGrouping_05_Aethnic",
              "groupId": "AnlsGrouping_05_Aethnic_04"
            }
          ],
          "rawValue": "0",
          "formattedValue": "0"
        },
        {
          "operationId": "Mth_03_02_%",
          "resultGroups": [
            {
              "groupingId": "AnlsGrouping_05_Aethnic",
              "groupId": "AnlsGrouping_05_Aethnic_01"
            }
          ],
          "rawValue": "4.7244094488",
          "formattedValue": "(4.7)"
        },
        {
          "operationId": "Mth_03_02_%",
          "resultGroups": [
            {
              "groupingId": "AnlsGrouping_05_Aethnic",
              "groupId": "AnlsGrouping_05_Aethnic_01"
            }
          ],
          "rawValue": "95.275590551",
          "formattedValue": "(95.3)"
        },
        {
          "operationId": "Mth_03_02_%",
          "resultGroups": [
            {
              "groupingId": "AnlsGrouping_05_Aethnic",
              "groupId": "AnlsGrouping_05_Aethnic_03"
            }
          ],
          "rawValue": "0",
          "formattedValue": "(0.0)"
        },
        {
          "operationId": "Mth_03_02_%",
          "resultGroups": [
            {
              "groupingId": "AnlsGrouping_05_Aethnic",
              "groupId": "AnlsGrouping_05_Aethnic_04"
            }
          ],
          "rawValue": "0",
          "formattedValue": "(0.0)"
        }
      ]
    },
    {
      "name": "Summary of Subjects by Treatment and Country of participation, n (%)",
      "id": "An_07",
      "reason": {
        "controlledTerm": "SPECIFIED IN SAP"
      },
      "purpose": {
        "sponsorTermId": "TermEx01_01"
      },
      "methodId": "Mth_03a",
      "version": 1,
      "categoryIds": [
        "ANSET_01",
        "ANSET_01_ANINT_04"
      ],
      "dataset": "ADSL",
      "variable": "USUBJID",
      "analysisSetId": "AnalysisSet_01",
      "orderedGroupings": [
        {
          "order": 1,
          "groupingId": "AnlsGrouping_01_Trt01An",
          "resultsByGroup": true
        },
        {
          "order": 2,
          "groupingId": "AnlsGrouping_06_Acountry",
          "resultsByGroup": true
        }
      ],
      "referencedAnalysisOperations": [
        {
          "referencedOperationRelationshipId": "Mth_03a_pct_NUM",
          "analysisId": "An_07"
        },
        {
          "referencedOperationRelationshipId": "Mth_03a_pct_DEN",
          "analysisId": "An_01"
        }
      ],
      "results": [
        {
          "operationId": "Mth_03_01_n",
          "resultGroups": [
            {
              "groupingId": "AnlsGrouping_01_Trt01An",
              "groupId": "AnlsGrouping_01_Trt01An_01"
            },
            {
              "groupingId": "AnlsGrouping_06_Acountry"
            }
          ],
          "rawValue": "84",
          "formattedValue": "84"
        },
        {
          "operationId": "Mth_03_01_n",
          "resultGroups": [
            {
              "groupingId": "AnlsGrouping_01_Trt01An",
              "groupId": "AnlsGrouping_01_Trt01An_02"
            },
            {
              "groupingId": "AnlsGrouping_06_Acountry"
            }
          ],
          "rawValue": "84",
          "formattedValue": "84"
        },
        {
          "operationId": "Mth_03_01_n",
          "resultGroups": [
            {
              "groupingId": "AnlsGrouping_01_Trt01An",
              "groupId": "AnlsGrouping_01_Trt01An_03"
            },
            {
              "groupingId": "AnlsGrouping_06_Acountry"
            }
          ],
          "rawValue": "86",
          "formattedValue": "86"
        },
        {
          "operationId": "Mth_03_02_%",
          "resultGroups": [
            {
              "groupingId": "AnlsGrouping_01_Trt01An",
              "groupId": "AnlsGrouping_01_Trt01An_01"
            },
            {
              "groupingId": "AnlsGrouping_06_Acountry"
            }
          ],
          "rawValue": "100",
          "formattedValue": "(100.0)"
        },
        {
          "operationId": "Mth_03_02_%",
          "resultGroups": [
            {
              "groupingId": "AnlsGrouping_01_Trt01An",
              "groupId": "AnlsGrouping_01_Trt01An_02"
            },
            {
              "groupingId": "AnlsGrouping_06_Acountry"
            }
          ],
          "rawValue": "100",
          "formattedValue": "(100.0)"
        },
        {
          "operationId": "Mth_03_02_%",
          "resultGroups": [
            {
              "groupingId": "AnlsGrouping_01_Trt01An",
              "groupId": "AnlsGrouping_01_Trt01An_03"
            },
            {
              "groupingId": "AnlsGrouping_06_Acountry"
            }
          ],
          "rawValue": "100",
          "formattedValue": "(100.0)"
        }
      ]
    },
    {
      "name": "Summary of Subjects by Country of participation, n (%)",
      "id": "An_07_Total",
      "reason": {
        "controlledTerm": "SPECIFIED IN SAP"
      },
      "purpose": {
        "sponsorTermId": "TermEx01_01"
      },
      "methodId": "Mth_03at",
      "version": 1,
      "categoryIds": [
        "ANSET_01",
        "ANSET_01_ANINT_04"
      ],
      "dataset": "ADSL",
      "variable": "USUBJID",
      "analysisSetId": "AnalysisSet_01",
      "dataSubsetId": "Dss_28",
      "orderedGroupings": [
        {
          "order": 1,
          "groupingId": "AnlsGrouping_06_Acountry",
          "resultsByGroup": true
        }
      ],
      "referencedAnalysisOperations": [
        {
          "referencedOperationRelationshipId": "Mth_03at_pct_NUM",
          "analysisId": "An_07_Total"
        },
        {
          "referencedOperationRelationshipId": "Mth_03at_pct_DEN",
          "analysisId": "An_01"
        }
      ],
      "results": [
        {
          "operationId": "Mth_03_01_n",
          "resultGroups": [
            {
              "groupingId": "AnlsGrouping_06_Acountry",
              "groupValue": "United States"
            }
          ],
          "rawValue": "254",
          "formattedValue": "254"
        },
        {
          "operationId": "Mth_03_02_%",
          "resultGroups": [
            {
              "groupingId": "AnlsGrouping_06_Acountry",
              "groupValue": "United States"
            }
          ],
          "rawValue": "100",
          "formattedValue": "(100.0)"
        }
      ]
    },
    {
      "name": "Summary of Baseline Weight (kg) by Treatment",
      "id": "An_08",
      "reason": {
        "controlledTerm": "SPECIFIED IN SAP"
      },
      "purpose": {
        "sponsorTermId": "TermEx01_01"
      },
      "methodId": "Mth_06",
      "version": 1,
      "categoryIds": [
        "ANSET_01",
        "ANSET_01_ANINT_04"
      ],
      "dataset": "ADSL",
      "variable": "WEIGHTBL",
      "analysisSetId": "AnalysisSet_01",
      "orderedGroupings": [
        {
          "order": 1,
          "groupingId": "AnlsGrouping_01_Trt01An",
          "resultsByGroup": true
        }
      ],
      "results": [
        {
          "operationId": "Mth_06_01_n",
          "resultGroups": [
            {
              "groupingId": "AnlsGrouping_01_Trt01An",
              "groupId": "AnlsGrouping_01_Trt01An_01"
            }
          ],
          "rawValue": "83",
          "formattedValue": "83"
        },
        {
          "operationId": "Mth_06_01_n",
          "resultGroups": [
            {
              "groupingId": "AnlsGrouping_01_Trt01An",
              "groupId": "AnlsGrouping_01_Trt01An_02"
            }
          ],
          "rawValue": "84",
          "formattedValue": "84"
        },
        {
          "operationId": "Mth_06_01_n",
          "resultGroups": [
            {
              "groupingId": "AnlsGrouping_01_Trt01An",
              "groupId": "AnlsGrouping_01_Trt01An_03"
            }
          ],
          "rawValue": "86",
          "formattedValue": "86"
        },
        {
          "operationId": "Mth_06_02_Mean",
          "resultGroups": [
            {
              "groupingId": "AnlsGrouping_01_Trt01An",
              "groupId": "AnlsGrouping_01_Trt01An_01"
            }
          ],
          "rawValue": "67.279518072",
          "formattedValue": "67.3"
        },
        {
          "operationId": "Mth_06_02_Mean",
          "resultGroups": [
            {
              "groupingId": "AnlsGrouping_01_Trt01An",
              "groupId": "AnlsGrouping_01_Trt01An_02"
            }
          ],
          "rawValue": "70.004761905",
          "formattedValue": "70.0"
        },
        {
          "operationId": "Mth_06_02_Mean",
          "resultGroups": [
            {
              "groupingId": "AnlsGrouping_01_Trt01An",
              "groupId": "AnlsGrouping_01_Trt01An_03"
            }
          ],
          "rawValue": "62.759302326",
          "formattedValue": "62.8"
        },
        {
          "operationId": "Mth_06_03_SD",
          "resultGroups": [
            {
              "groupingId": "AnlsGrouping_01_Trt01An",
              "groupId": "AnlsGrouping_01_Trt01An_01"
            }
          ],
          "rawValue": "14.123598649",
          "formattedValue": "(14.1)"
        },
        {
          "operationId": "Mth_06_03_SD",
          "resultGroups": [
            {
              "groupingId": "AnlsGrouping_01_Trt01An",
              "groupId": "AnlsGrouping_01_Trt01An_02"
            }
          ],
          "rawValue": "14.653433372",
          "formattedValue": "(14.7)"
        },
        {
          "operationId": "Mth_06_03_SD",
          "resultGroups": [
            {
              "groupingId": "AnlsGrouping_01_Trt01An",
              "groupId": "AnlsGrouping_01_Trt01An_03"
            }
          ],
          "rawValue": "12.771543533",
          "formattedValue": "(12.8)"
        },
        {
          "operationId": "Mth_06_04_Median",
          "resultGroups": [
            {
              "groupingId": "AnlsGrouping_01_Trt01An",
              "groupId": "AnlsGrouping_01_Trt01An_01"
            }
          ],
          "rawValue": "64.9",
          "formattedValue": "64.9"
        },
        {
          "operationId": "Mth_06_04_Median",
          "resultGroups": [
            {
              "groupingId": "AnlsGrouping_01_Trt01An",
              "groupId": "AnlsGrouping_01_Trt01An_02"
            }
          ],
          "rawValue": "69.2",
          "formattedValue": "69.2"
        },
        {
          "operationId": "Mth_06_04_Median",
          "resultGroups": [
            {
              "groupingId": "AnlsGrouping_01_Trt01An",
              "groupId": "AnlsGrouping_01_Trt01An_03"
            }
          ],
          "rawValue": "60.55",
          "formattedValue": "60.6"
        },
        {
          "operationId": "Mth_06_07_Min",
          "resultGroups": [
            {
              "groupingId": "AnlsGrouping_01_Trt01An",
              "groupId": "AnlsGrouping_01_Trt01An_01"
            }
          ],
          "rawValue": "45.4",
          "formattedValue": "45"
        },
        {
          "operationId": "Mth_06_07_Min",
          "resultGroups": [
            {
              "groupingId": "AnlsGrouping_01_Trt01An",
              "groupId": "AnlsGrouping_01_Trt01An_02"
            }
          ],
          "rawValue": "41.7",
          "formattedValue": "42"
        },
        {
          "operationId": "Mth_06_07_Min",
          "resultGroups": [
            {
              "groupingId": "AnlsGrouping_01_Trt01An",
              "groupId": "AnlsGrouping_01_Trt01An_03"
            }
          ],
          "rawValue": "34",
          "formattedValue": "34"
        },
        {
          "operationId": "Mth_06_08_Max",
          "resultGroups": [
            {
              "groupingId": "AnlsGrouping_01_Trt01An",
              "groupId": "AnlsGrouping_01_Trt01An_01"
            }
          ],
          "rawValue": "106.1",
          "formattedValue": "106"
        },
        {
          "operationId": "Mth_06_08_Max",
          "resultGroups": [
            {
              "groupingId": "AnlsGrouping_01_Trt01An",
              "groupId": "AnlsGrouping_01_Trt01An_02"
            }
          ],
          "rawValue": "108",
          "formattedValue": "108"
        },
        {
          "operationId": "Mth_06_08_Max",
          "resultGroups": [
            {
              "groupingId": "AnlsGrouping_01_Trt01An",
              "groupId": "AnlsGrouping_01_Trt01An_03"
            }
          ],
          "rawValue": "86.2",
          "formattedValue": "86"
        }
      ]
    },
    {
      "name": "Summary of Baseline Weight (kg)",
      "id": "An_08_Total",
      "reason": {
        "controlledTerm": "SPECIFIED IN SAP"
      },
      "purpose": {
        "sponsorTermId": "TermEx01_01"
      },
      "methodId": "Mth_06",
      "version": 1,
      "categoryIds": [
        "ANSET_01",
        "ANSET_01_ANINT_04"
      ],
      "dataset": "ADSL",
      "variable": "WEIGHTBL",
      "analysisSetId": "AnalysisSet_01",
      "dataSubsetId": "Dss_28",
      "results": [
        {
          "operationId": "Mth_06_01_n",
          "rawValue": "253",
          "formattedValue": "253"
        },
        {
          "operationId": "Mth_06_02_Mean",
          "rawValue": "66.647826087",
          "formattedValue": "66.6"
        },
        {
          "operationId": "Mth_06_03_SD",
          "rawValue": "14.131425537",
          "formattedValue": "(14.1)"
        },
        {
          "operationId": "Mth_06_04_Median",
          "rawValue": "66.7",
          "formattedValue": "66.7"
        },
        {
          "operationId": "Mth_06_07_Min",
          "rawValue": "34",
          "formattedValue": "34"
        },
        {
          "operationId": "Mth_06_08_Max",
          "rawValue": "108",
          "formattedValue": "108"
        }
      ]
    },
    {
      "name": "Summary of Baseline Height (cm) by Treatment",
      "id": "An_09",
      "reason": {
        "controlledTerm": "SPECIFIED IN SAP"
      },
      "purpose": {
        "sponsorTermId": "TermEx01_01"
      },
      "methodId": "Mth_06",
      "version": 1,
      "categoryIds": [
        "ANSET_01",
        "ANSET_01_ANINT_04"
      ],
      "dataset": "ADSL",
      "variable": "HEIGHTBL",
      "analysisSetId": "AnalysisSet_01",
      "orderedGroupings": [
        {
          "order": 1,
          "groupingId": "AnlsGrouping_01_Trt01An",
          "resultsByGroup": true
        }
      ],
      "results": [
        {
          "operationId": "Mth_06_01_n",
          "resultGroups": [
            {
              "groupingId": "AnlsGrouping_01_Trt01An",
              "groupId": "AnlsGrouping_01_Trt01An_01"
            }
          ],
          "rawValue": "84",
          "formattedValue": "84"
        },
        {
          "operationId": "Mth_06_01_n",
          "resultGroups": [
            {
              "groupingId": "AnlsGrouping_01_Trt01An",
              "groupId": "AnlsGrouping_01_Trt01An_02"
            }
          ],
          "rawValue": "84",
          "formattedValue": "84"
        },
        {
          "operationId": "Mth_06_01_n",
          "resultGroups": [
            {
              "groupingId": "AnlsGrouping_01_Trt01An",
              "groupId": "AnlsGrouping_01_Trt01An_03"
            }
          ],
          "rawValue": "86",
          "formattedValue": "86"
        },
        {
          "operationId": "Mth_06_02_Mean",
          "resultGroups": [
            {
              "groupingId": "AnlsGrouping_01_Trt01An",
              "groupId": "AnlsGrouping_01_Trt01An_01"
            }
          ],
          "rawValue": "163.43333333",
          "formattedValue": "163"
        },
        {
          "operationId": "Mth_06_02_Mean",
          "resultGroups": [
            {
              "groupingId": "AnlsGrouping_01_Trt01An",
              "groupId": "AnlsGrouping_01_Trt01An_02"
            }
          ],
          "rawValue": "165.8202381",
          "formattedValue": "166"
        },
        {
          "operationId": "Mth_06_02_Mean",
          "resultGroups": [
            {
              "groupingId": "AnlsGrouping_01_Trt01An",
              "groupId": "AnlsGrouping_01_Trt01An_03"
            }
          ],
          "rawValue": "162.57325581",
          "formattedValue": "163"
        },
        {
          "operationId": "Mth_06_03_SD",
          "resultGroups": [
            {
              "groupingId": "AnlsGrouping_01_Trt01An",
              "groupId": "AnlsGrouping_01_Trt01An_01"
            }
          ],
          "rawValue": "10.419240003",
          "formattedValue": "(10.4)"
        },
        {
          "operationId": "Mth_06_03_SD",
          "resultGroups": [
            {
              "groupingId": "AnlsGrouping_01_Trt01An",
              "groupId": "AnlsGrouping_01_Trt01An_02"
            }
          ],
          "rawValue": "10.131351552",
          "formattedValue": "(10.1)"
        },
        {
          "operationId": "Mth_06_03_SD",
          "resultGroups": [
            {
              "groupingId": "AnlsGrouping_01_Trt01An",
              "groupId": "AnlsGrouping_01_Trt01An_03"
            }
          ],
          "rawValue": "11.522361119",
          "formattedValue": "(11.5)"
        },
        {
          "operationId": "Mth_06_04_Median",
          "resultGroups": [
            {
              "groupingId": "AnlsGrouping_01_Trt01An",
              "groupId": "AnlsGrouping_01_Trt01An_01"
            }
          ],
          "rawValue": "162.6",
          "formattedValue": "163"
        },
        {
          "operationId": "Mth_06_04_Median",
          "resultGroups": [
            {
              "groupingId": "AnlsGrouping_01_Trt01An",
              "groupId": "AnlsGrouping_01_Trt01An_02"
            }
          ],
          "rawValue": "165.1",
          "formattedValue": "165"
        },
        {
          "operationId": "Mth_06_04_Median",
          "resultGroups": [
            {
              "groupingId": "AnlsGrouping_01_Trt01An",
              "groupId": "AnlsGrouping_01_Trt01An_03"
            }
          ],
          "rawValue": "162.6",
          "formattedValue": "163"
        },
        {
          "operationId": "Mth_06_07_Min",
          "resultGroups": [
            {
              "groupingId": "AnlsGrouping_01_Trt01An",
              "groupId": "AnlsGrouping_01_Trt01An_01"
            }
          ],
          "rawValue": "135.9",
          "formattedValue": "136"
        },
        {
          "operationId": "Mth_06_07_Min",
          "resultGroups": [
            {
              "groupingId": "AnlsGrouping_01_Trt01An",
              "groupId": "AnlsGrouping_01_Trt01An_02"
            }
          ],
          "rawValue": "146.1",
          "formattedValue": "146"
        },
        {
          "operationId": "Mth_06_07_Min",
          "resultGroups": [
            {
              "groupingId": "AnlsGrouping_01_Trt01An",
              "groupId": "AnlsGrouping_01_Trt01An_03"
            }
          ],
          "rawValue": "137.2",
          "formattedValue": "137"
        },
        {
          "operationId": "Mth_06_08_Max",
          "resultGroups": [
            {
              "groupingId": "AnlsGrouping_01_Trt01An",
              "groupId": "AnlsGrouping_01_Trt01An_01"
            }
          ],
          "rawValue": "195.6",
          "formattedValue": "196"
        },
        {
          "operationId": "Mth_06_08_Max",
          "resultGroups": [
            {
              "groupingId": "AnlsGrouping_01_Trt01An",
              "groupId": "AnlsGrouping_01_Trt01An_02"
            }
          ],
          "rawValue": "190.5",
          "formattedValue": "191"
        },
        {
          "operationId": "Mth_06_08_Max",
          "resultGroups": [
            {
              "groupingId": "AnlsGrouping_01_Trt01An",
              "groupId": "AnlsGrouping_01_Trt01An_03"
            }
          ],
          "rawValue": "185.4",
          "formattedValue": "185"
        }
      ]
    },
    {
      "name": "Summary of Baseline Height (cm)",
      "id": "An_09_Total",
      "reason": {
        "controlledTerm": "SPECIFIED IN SAP"
      },
      "purpose": {
        "sponsorTermId": "TermEx01_01"
      },
      "methodId": "Mth_06",
      "version": 1,
      "categoryIds": [
        "ANSET_01",
        "ANSET_01_ANINT_04"
      ],
      "dataset": "ADSL",
      "variable": "HEIGHTBL",
      "analysisSetId": "AnalysisSet_01",
      "dataSubsetId": "Dss_28",
      "results": [
        {
          "operationId": "Mth_06_01_n",
          "rawValue": "254",
          "formattedValue": "254"
        },
        {
          "operationId": "Mth_06_02_Mean",
          "rawValue": "163.93149606",
          "formattedValue": "164"
        },
        {
          "operationId": "Mth_06_03_SD",
          "rawValue": "10.760447269",
          "formattedValue": "(10.8)"
        },
        {
          "operationId": "Mth_06_04_Median",
          "rawValue": "162.85",
          "formattedValue": "163"
        },
        {
          "operationId": "Mth_06_07_Min",
          "rawValue": "135.9",
          "formattedValue": "136"
        },
        {
          "operationId": "Mth_06_08_Max",
          "rawValue": "195.6",
          "formattedValue": "196"
        }
      ]
    },
    {
      "name": "Summary of Baseline BMI (kg/m^2) by Treatment",
      "id": "An_10",
      "reason": {
        "controlledTerm": "SPECIFIED IN SAP"
      },
      "purpose": {
        "sponsorTermId": "TermEx01_01"
      },
      "methodId": "Mth_06",
      "version": 1,
      "categoryIds": [
        "ANSET_01",
        "ANSET_01_ANINT_04"
      ],
      "dataset": "ADSL",
      "variable": "BMIBL",
      "analysisSetId": "AnalysisSet_01",
      "orderedGroupings": [
        {
          "order": 1,
          "groupingId": "AnlsGrouping_01_Trt01An",
          "resultsByGroup": true
        }
      ],
      "results": [
        {
          "operationId": "Mth_06_01_n",
          "resultGroups": [
            {
              "groupingId": "AnlsGrouping_01_Trt01An",
              "groupId": "AnlsGrouping_01_Trt01An_01"
            }
          ],
          "rawValue": "83",
          "formattedValue": "83"
        },
        {
          "operationId": "Mth_06_01_n",
          "resultGroups": [
            {
              "groupingId": "AnlsGrouping_01_Trt01An",
              "groupId": "AnlsGrouping_01_Trt01An_02"
            }
          ],
          "rawValue": "84",
          "formattedValue": "84"
        },
        {
          "operationId": "Mth_06_01_n",
          "resultGroups": [
            {
              "groupingId": "AnlsGrouping_01_Trt01An",
              "groupId": "AnlsGrouping_01_Trt01An_03"
            }
          ],
          "rawValue": "86",
          "formattedValue": "86"
        },
        {
          "operationId": "Mth_06_02_Mean",
          "resultGroups": [
            {
              "groupingId": "AnlsGrouping_01_Trt01An",
              "groupId": "AnlsGrouping_01_Trt01An_01"
            }
          ],
          "rawValue": "25.062650602",
          "formattedValue": "25.1"
        },
        {
          "operationId": "Mth_06_02_Mean",
          "resultGroups": [
            {
              "groupingId": "AnlsGrouping_01_Trt01An",
              "groupId": "AnlsGrouping_01_Trt01An_02"
            }
          ],
          "rawValue": "25.347619048",
          "formattedValue": "25.3"
        },
        {
          "operationId": "Mth_06_02_Mean",
          "resultGroups": [
            {
              "groupingId": "AnlsGrouping_01_Trt01An",
              "groupId": "AnlsGrouping_01_Trt01An_03"
            }
          ],
          "rawValue": "23.636046512",
          "formattedValue": "23.6"
        },
        {
          "operationId": "Mth_06_03_SD",
          "resultGroups": [
            {
              "groupingId": "AnlsGrouping_01_Trt01An",
              "groupId": "AnlsGrouping_01_Trt01An_01"
            }
          ],
          "rawValue": "4.270508933",
          "formattedValue": "(4.27)"
        },
        {
          "operationId": "Mth_06_03_SD",
          "resultGroups": [
            {
              "groupingId": "AnlsGrouping_01_Trt01An",
              "groupId": "AnlsGrouping_01_Trt01An_02"
            }
          ],
          "rawValue": "4.1582687602",
          "formattedValue": "(4.16)"
        },
        {
          "operationId": "Mth_06_03_SD",
          "resultGroups": [
            {
              "groupingId": "AnlsGrouping_01_Trt01An",
              "groupId": "AnlsGrouping_01_Trt01An_03"
            }
          ],
          "rawValue": "3.6719256942",
          "formattedValue": "(3.67)"
        },
        {
          "operationId": "Mth_06_04_Median",
          "resultGroups": [
            {
              "groupingId": "AnlsGrouping_01_Trt01An",
              "groupId": "AnlsGrouping_01_Trt01An_01"
            }
          ],
          "rawValue": "24.3",
          "formattedValue": "24.3"
        },
        {
          "operationId": "Mth_06_04_Median",
          "resultGroups": [
            {
              "groupingId": "AnlsGrouping_01_Trt01An",
              "groupId": "AnlsGrouping_01_Trt01An_02"
            }
          ],
          "rawValue": "24.8",
          "formattedValue": "24.8"
        },
        {
          "operationId": "Mth_06_04_Median",
          "resultGroups": [
            {
              "groupingId": "AnlsGrouping_01_Trt01An",
              "groupId": "AnlsGrouping_01_Trt01An_03"
            }
          ],
          "rawValue": "23.4",
          "formattedValue": "23.4"
        },
        {
          "operationId": "Mth_06_07_Min",
          "resultGroups": [
            {
              "groupingId": "AnlsGrouping_01_Trt01An",
              "groupId": "AnlsGrouping_01_Trt01An_01"
            }
          ],
          "rawValue": "17.7",
          "formattedValue": "18"
        },
        {
          "operationId": "Mth_06_07_Min",
          "resultGroups": [
            {
              "groupingId": "AnlsGrouping_01_Trt01An",
              "groupId": "AnlsGrouping_01_Trt01An_02"
            }
          ],
          "rawValue": "13.7",
          "formattedValue": "14"
        },
        {
          "operationId": "Mth_06_07_Min",
          "resultGroups": [
            {
              "groupingId": "AnlsGrouping_01_Trt01An",
              "groupId": "AnlsGrouping_01_Trt01An_03"
            }
          ],
          "rawValue": "15.1",
          "formattedValue": "15"
        },
        {
          "operationId": "Mth_06_08_Max",
          "resultGroups": [
            {
              "groupingId": "AnlsGrouping_01_Trt01An",
              "groupId": "AnlsGrouping_01_Trt01An_01"
            }
          ],
          "rawValue": "40.1",
          "formattedValue": "40"
        },
        {
          "operationId": "Mth_06_08_Max",
          "resultGroups": [
            {
              "groupingId": "AnlsGrouping_01_Trt01An",
              "groupId": "AnlsGrouping_01_Trt01An_02"
            }
          ],
          "rawValue": "34.5",
          "formattedValue": "35"
        },
        {
          "operationId": "Mth_06_08_Max",
          "resultGroups": [
            {
              "groupingId": "AnlsGrouping_01_Trt01An",
              "groupId": "AnlsGrouping_01_Trt01An_03"
            }
          ],
          "rawValue": "33.3",
          "formattedValue": "33"
        }
      ]
    },
    {
      "name": "Summary of Baseline BMI (kg/m^2)",
      "id": "An_10_Total",
      "reason": {
        "controlledTerm": "SPECIFIED IN SAP"
      },
      "purpose": {
        "sponsorTermId": "TermEx01_01"
      },
      "methodId": "Mth_06",
      "version": 1,
      "categoryIds": [
        "ANSET_01",
        "ANSET_01_ANINT_04"
      ],
      "dataset": "ADSL",
      "variable": "BMIBL",
      "analysisSetId": "AnalysisSet_01",
      "dataSubsetId": "Dss_28",
      "results": [
        {
          "operationId": "Mth_06_01_n",
          "rawValue": "253",
          "formattedValue": "253"
        },
        {
          "operationId": "Mth_06_02_Mean",
          "rawValue": "24.672332016",
          "formattedValue": "24.7"
        },
        {
          "operationId": "Mth_06_03_SD",
          "rawValue": "4.092184927",
          "formattedValue": "(4.09)"
        },
        {
          "operationId": "Mth_06_04_Median",
          "rawValue": "24.2",
          "formattedValue": "24.2"
        },
        {
          "operationId": "Mth_06_07_Min",
          "rawValue": "13.7",
          "formattedValue": "14"
        },
        {
          "operationId": "Mth_06_08_Max",
          "rawValue": "40.1",
          "formattedValue": "40"
        }
      ]
    },
    {
      "name": "Summary of Duration of Disease (Months) by Treatment",
      "id": "An_11",
      "reason": {
        "controlledTerm": "SPECIFIED IN SAP"
      },
      "purpose": {
        "sponsorTermId": "TermEx01_01"
      },
      "methodId": "Mth_06",
      "version": 1,
      "categoryIds": [
        "ANSET_01",
        "ANSET_01_ANINT_04"
      ],
      "dataset": "ADSL",
      "variable": "DURDIS",
      "analysisSetId": "AnalysisSet_01",
      "orderedGroupings": [
        {
          "order": 1,
          "groupingId": "AnlsGrouping_01_Trt01An",
          "resultsByGroup": true
        }
      ],
      "results": [
        {
          "operationId": "Mth_06_01_n",
          "resultGroups": [
            {
              "groupingId": "AnlsGrouping_01_Trt01An",
              "groupId": "AnlsGrouping_01_Trt01An_01"
            }
          ],
          "rawValue": "84",
          "formattedValue": "84"
        },
        {
          "operationId": "Mth_06_01_n",
          "resultGroups": [
            {
              "groupingId": "AnlsGrouping_01_Trt01An",
              "groupId": "AnlsGrouping_01_Trt01An_02"
            }
          ],
          "rawValue": "84",
          "formattedValue": "84"
        },
        {
          "operationId": "Mth_06_01_n",
          "resultGroups": [
            {
              "groupingId": "AnlsGrouping_01_Trt01An",
              "groupId": "AnlsGrouping_01_Trt01An_03"
            }
          ],
          "rawValue": "86",
          "formattedValue": "86"
        },
        {
          "operationId": "Mth_06_02_Mean",
          "resultGroups": [
            {
              "groupingId": "AnlsGrouping_01_Trt01An",
              "groupId": "AnlsGrouping_01_Trt01An_01"
            }
          ],
          "rawValue": "48.691666667",
          "formattedValue": "48.7"
        },
        {
          "operationId": "Mth_06_02_Mean",
          "resultGroups": [
            {
              "groupingId": "AnlsGrouping_01_Trt01An",
              "groupId": "AnlsGrouping_01_Trt01An_02"
            }
          ],
          "rawValue": "40.507142857",
          "formattedValue": "40.5"
        },
        {
          "operationId": "Mth_06_02_Mean",
          "resultGroups": [
            {
              "groupingId": "AnlsGrouping_01_Trt01An",
              "groupId": "AnlsGrouping_01_Trt01An_03"
            }
          ],
          "rawValue": "42.65",
          "formattedValue": "42.6"
        },
        {
          "operationId": "Mth_06_03_SD",
          "resultGroups": [
            {
              "groupingId": "AnlsGrouping_01_Trt01An",
              "groupId": "AnlsGrouping_01_Trt01An_01"
            }
          ],
          "rawValue": "29.584171152",
          "formattedValue": "(29.6)"
        },
        {
          "operationId": "Mth_06_03_SD",
          "resultGroups": [
            {
              "groupingId": "AnlsGrouping_01_Trt01An",
              "groupId": "AnlsGrouping_01_Trt01An_02"
            }
          ],
          "rawValue": "24.693547207",
          "formattedValue": "(24.7)"
        },
        {
          "operationId": "Mth_06_03_SD",
          "resultGroups": [
            {
              "groupingId": "AnlsGrouping_01_Trt01An",
              "groupId": "AnlsGrouping_01_Trt01An_03"
            }
          ],
          "rawValue": "30.241571504",
          "formattedValue": "(30.2)"
        },
        {
          "operationId": "Mth_06_04_Median",
          "resultGroups": [
            {
              "groupingId": "AnlsGrouping_01_Trt01An",
              "groupId": "AnlsGrouping_01_Trt01An_01"
            }
          ],
          "rawValue": "40.25",
          "formattedValue": "40.3"
        },
        {
          "operationId": "Mth_06_04_Median",
          "resultGroups": [
            {
              "groupingId": "AnlsGrouping_01_Trt01An",
              "groupId": "AnlsGrouping_01_Trt01An_02"
            }
          ],
          "rawValue": "35.95",
          "formattedValue": "36.0"
        },
        {
          "operationId": "Mth_06_04_Median",
          "resultGroups": [
            {
              "groupingId": "AnlsGrouping_01_Trt01An",
              "groupId": "AnlsGrouping_01_Trt01An_03"
            }
          ],
          "rawValue": "35.3",
          "formattedValue": "35.3"
        },
        {
          "operationId": "Mth_06_07_Min",
          "resultGroups": [
            {
              "groupingId": "AnlsGrouping_01_Trt01An",
              "groupId": "AnlsGrouping_01_Trt01An_01"
            }
          ],
          "rawValue": "7.8",
          "formattedValue": "8"
        },
        {
          "operationId": "Mth_06_07_Min",
          "resultGroups": [
            {
              "groupingId": "AnlsGrouping_01_Trt01An",
              "groupId": "AnlsGrouping_01_Trt01An_02"
            }
          ],
          "rawValue": "2.2",
          "formattedValue": "2"
        },
        {
          "operationId": "Mth_06_07_Min",
          "resultGroups": [
            {
              "groupingId": "AnlsGrouping_01_Trt01An",
              "groupId": "AnlsGrouping_01_Trt01An_03"
            }
          ],
          "rawValue": "7.2",
          "formattedValue": "7"
        },
        {
          "operationId": "Mth_06_08_Max",
          "resultGroups": [
            {
              "groupingId": "AnlsGrouping_01_Trt01An",
              "groupId": "AnlsGrouping_01_Trt01An_01"
            }
          ],
          "rawValue": "130.8",
          "formattedValue": "131"
        },
        {
          "operationId": "Mth_06_08_Max",
          "resultGroups": [
            {
              "groupingId": "AnlsGrouping_01_Trt01An",
              "groupId": "AnlsGrouping_01_Trt01An_02"
            }
          ],
          "rawValue": "135",
          "formattedValue": "135"
        },
        {
          "operationId": "Mth_06_08_Max",
          "resultGroups": [
            {
              "groupingId": "AnlsGrouping_01_Trt01An",
              "groupId": "AnlsGrouping_01_Trt01An_03"
            }
          ],
          "rawValue": "183.1",
          "formattedValue": "183"
        }
      ]
    },
    {
      "name": "Summary of Duration of Disease (Months)",
      "id": "An_11_Total",
      "reason": {
        "controlledTerm": "SPECIFIED IN SAP"
      },
      "purpose": {
        "sponsorTermId": "TermEx01_01"
      },
      "methodId": "Mth_06",
      "version": 1,
      "categoryIds": [
        "ANSET_01",
        "ANSET_01_ANINT_04"
      ],
      "dataset": "ADSL",
      "variable": "DURDIS",
      "analysisSetId": "AnalysisSet_01",
      "dataSubsetId": "Dss_28",
      "results": [
        {
          "operationId": "Mth_06_01_n",
          "rawValue": "254",
          "formattedValue": "254"
        },
        {
          "operationId": "Mth_06_02_Mean",
          "rawValue": "43.939370079",
          "formattedValue": "43.9"
        },
        {
          "operationId": "Mth_06_03_SD",
          "rawValue": "28.397315626",
          "formattedValue": "(28.4)"
        },
        {
          "operationId": "Mth_06_04_Median",
          "rawValue": "36.25",
          "formattedValue": "36.3"
        },
        {
          "operationId": "Mth_06_07_Min",
          "rawValue": "2.2",
          "formattedValue": "2"
        },
        {
          "operationId": "Mth_06_08_Max",
          "rawValue": "183.1",
          "formattedValue": "183"
        }
      ]
    }
  ],
  "globalDisplaySections": [
    {
      "sectionType": "Header",
      "subSections": [
        {
          "id": "GlobalDisp_Header_01",
          "text": "CDISC - eTFL Portal"
        },
        {
          "id": "GlobalDisp_Header_02",
          "text": "Generated using TFL Designer (Community, v1.0)"
        },
        {
          "id": "GlobalDisp_Header_03",
          "text": "Page x of y"
        }
      ]
    }
  ],
  "outputs": [
    {
      "name": "Baseline Demographic and Clinical Characteristics",
      "id": "Out_01",
      "displays": [
        {
          "order": 1,
          "display": {
            "name": "=B3",
            "id": "Disp_01",
            "version": 1,
            "displayTitle": "=F3",
            "displaySections": [
              {
                "sectionType": "Header",
                "orderedSubSections": [
                  {
                    "order": 1,
                    "subSectionId": "GlobalDisp_Header_01"
                  },
                  {
                    "order": 2,
                    "subSectionId": "GlobalDisp_Header_02"
                  },
                  {
                    "order": 3,
                    "subSectionId": "GlobalDisp_Header_03"
                  }
                ]
              },
              {
                "sectionType": "Title",
                "orderedSubSections": [
                  {
                    "order": 1,
                    "subSection": {
                      "id": "Disp_01_Title_01",
                      "text": "FDA-DM-T02"
                    }
                  },
                  {
                    "order": 2,
                    "subSection": {
                      "id": "Disp_01_Title_02",
                      "text": "Baseline Demographic and Clinical Characteristics"
                    }
                  },
                  {
                    "order": 3,
                    "subSection": {
                      "id": "Disp_01_Title_03",
                      "text": "Safety Population"
                    }
                  }
                ]
              },
              {
                "sectionType": "Footnote",
                "orderedSubSections": [
                  {
                    "order": 1,
                    "subSection": {
                      "id": "Disp_01_Footnote_01",
                      "text": "Source: ADSL; Program name: fda-dm-t02.sas"
                    }
                  },
                  {
                    "order": 2,
                    "subSection": {
                      "id": "Disp_01_Footnote_02",
                      "text": "Abbreviations: N, number of subjects in treatment arm; n, number of subjects with given characteristic; SD, standard deviation"
                    }
                  }
                ]
              },
              {
                "sectionType": "Rowlabel Header",
                "orderedSubSections": [
                  {
                    "order": 1,
                    "subSection": {
                      "id": "Disp_01_RowlabelHeader_01",
                      "text": "Characteristics"
                    }
                  }
                ]
              }
            ]
          }
        }
      ],
      "version": 1,
      "categoryIds": [
        "ANSET_01",
        "ANSET_01_ANINT_04"
      ]
    }
  ],
  "@type": "ReportingEvent"
}