{
  "name": "Subjects With Serious Adverse Events by System Organ Class and Preferred Term",
  "id": "FDA-AE-T09",
  "mainListOfContents": {
    "name": "List of Planned Analyses",
    "label": "LOPA",
    "contentsList": {
      "listItems": [
        {
          "name": "Subjects With Serious Adverse Events by System Organ Class and Preferred Term",
          "level": 1,
          "order": 1,
          "outputId": "Out_07",
          "sublist": {
            "listItems": [
              {
                "name": "    Summary of Subjects by Treatment",
                "level": 2,
                "order": 1,
                "analysisId": "An_65"
              },
              {
                "name": "    Subjects with at least one treatment-emergent SAE [4]",
                "level": 2,
                "order": 2,
                "sublist": {
                  "listItems": [
                    {
                      "name": "        Summary of subjects with at least one treatment-emergent SAE by Treatment",
                      "level": 3,
                      "order": 1,
                      "analysisId": "An_66"
                    },
                    {
                      "name": "        Comparison of subjects with at least one treatment-emergent SAE, Xanomeline Low Dose vs Placebo",
                      "level": 3,
                      "order": 2,
                      "analysisId": "An_67"
                    },
                    {
                      "name": "        Comparison of subjects with at least one treatment-emergent SAE, Xanomeline High Dose vs Placebo",
                      "level": 3,
                      "order": 3,
                      "analysisId": "An_67_1"
                    }
                  ]
                }
              },
              {
                "name": "    SOC {alphabetical order}",
                "level": 2,
                "order": 3,
                "sublist": {
                  "listItems": [
                    {
                      "name": "        Summary of subjects with at least one treatment-emergent SAE by Treatment and SOC",
                      "level": 3,
                      "order": 1,
                      "analysisId": "An_68"
                    },
                    {
                      "name": "        Comparison of subjects with at least one treatment-emergent SAE by SOC, Xanomeline Low Dose vs Placebo",
                      "level": 3,
                      "order": 2,
                      "analysisId": "An_69"
                    },
                    {
                      "name": "        Comparison of subjects with at least one treatment-emergent SAE by SOC, Xanomeline High Dose vs Placebo",
                      "level": 3,
                      "order": 3,
                      "analysisId": "An_69_1"
                    }
                  ]
                }
              },
              {
                "name": "    PT {alphabetical order}",
                "level": 2,
                "order": 4,
                "sublist": {
                  "listItems": [
                    {
                      "name": "        Summary of subjects with at least one treatment-emergent SAE by Treatment and PT",
                      "level": 3,
                      "order": 1,
                      "analysisId": "An_70"
                    },
                    {
                      "name": "        Comparison of subjects with at least one treatment-emergent SAE by PT, Xanomeline Low Dose vs Placebo",
                      "level": 3,
                      "order": 2,
                      "analysisId": "An_71"
                    },
                    {
                      "name": "        Comparison of subjects with at least one treatment-emergent SAE by PT, Xanomeline High Dose vs Placebo",
                      "level": 3,
                      "order": 3,
                      "analysisId": "An_71_1"
                    }
                  ]
                }
              }
            ]
          }
        }
      ]
    }
  },
  "version": 1,
  "otherListsOfContents": [
    {
      "name": "List of Planned Outputs",
      "label": "LOPO",
      "contentsList": {
        "listItems": [
          {
            "name": "Subjects With Serious Adverse Events by System Organ Class and Preferred Term",
            "level": 1,
            "order": 1,
            "outputId": "Out_07"
          }
        ]
      }
    }
  ],
  "terminologyExtensions": [
    {
      "id": "TermEx01",
      "sponsorTerms": [
        {
          "id": "TermEx01_01",
          "submissionValue": "POPULATION SUMMARY",
          "description": "Summary statistics describing the study population(s)."
        }
      ],
      "enumeration": "AnalysisPurposeEnum"
    }
  ],
  "analysisOutputCategorizations": [
    {
      "id": "ANSET",
      "categories": [
        {
          "id": "ANSET_01",
          "label": "Safety",
          "subCategorizations": [
            {
              "id": "ANSET_01_ANINT",
              "categories": [
                {
                  "id": "ANSET_01_ANINT_05",
                  "label": "Adverse Events"
                }
              ],
              "label": "Safety Analysis Of Interest"
            }
          ]
        }
      ],
      "label": "Analysis Sets"
    }
  ],
  "analysisSets": [
    {
      "name": "Safety Population",
      "description": "All patients randomized and known to have taken at least one dose of randomized drug.",
      "id": "AnalysisSet_01",
      "level": 1,
      "order": 1,
      "condition": {
        "dataset": "ADSL",
        "variable": "SAFFL",
        "comparator": "EQ",
        "value": [
          "Y"
        ]
      }
    }
  ],
  "dataSubsets": [
    {
      "name": "1st Occurrence of Any SAE",
      "id": "Dss_19",
      "level": 1,
      "order": 1,
      "condition": {
        "dataset": "ADAE",
        "variable": "AOCC02FL",
        "comparator": "EQ",
        "value": [
          "Y"
        ]
      }
    },
    {
      "name": "1st Occurrence of SOC for Serious",
      "id": "Dss_20",
      "level": 1,
      "order": 1,
      "condition": {
        "dataset": "ADAE",
        "variable": "AOCC03FL",
        "comparator": "EQ",
        "value": [
          "Y"
        ]
      }
    },
    {
      "name": "1st Occurrence of Preferred Term for Serious",
      "id": "Dss_21",
      "level": 1,
      "order": 1,
      "condition": {
        "dataset": "ADAE",
        "variable": "AOCC04FL",
        "comparator": "EQ",
        "value": [
          "Y"
        ]
      }
    },
    {
      "name": "1st Occurrence of Any SAE, Xanomeline Low Dose or Placebo",
      "id": "Dss_81",
      "level": 1,
      "order": 1,
      "compoundExpression": {
        "logicalOperator": "AND",
        "whereClauses": [
          {
            "level": 2,
            "order": 1,
            "condition": {
              "dataset": "ADAE",
              "variable": "AOCC02FL",
              "comparator": "EQ",
              "value": [
                "Y"
              ]
            }
          },
          {
            "level": 2,
            "order": 2,
            "condition": {
              "dataset": "ADAE",
              "variable": "TRTAN",
              "comparator": "IN",
              "value": [
                "1",
                "3"
              ]
            }
          }
        ]
      }
    },
    {
      "name": "1st Occurrence of Any SAE, Xanomeline High Dose or Placebo",
      "id": "Dss_82",
      "level": 1,
      "order": 1,
      "compoundExpression": {
        "logicalOperator": "AND",
        "whereClauses": [
          {
            "level": 2,
            "order": 1,
            "condition": {
              "dataset": "ADAE",
              "variable": "AOCC02FL",
              "comparator": "EQ",
              "value": [
                "Y"
              ]
            }
          },
          {
            "level": 2,
            "order": 2,
            "condition": {
              "dataset": "ADAE",
              "variable": "TRTAN",
              "comparator": "IN",
              "value": [
                "2",
                "3"
              ]
            }
          }
        ]
      }
    },
    {
      "name": "1st Occurrence of SOC for Serious, Xanomeline Low Dose or Placebo",
      "id": "Dss_83",
      "level": 1,
      "order": 1,
      "compoundExpression": {
        "logicalOperator": "AND",
        "whereClauses": [
          {
            "level": 2,
            "order": 1,
            "condition": {
              "dataset": "ADAE",
              "variable": "AOCC03FL",
              "comparator": "EQ",
              "value": [
                "Y"
              ]
            }
          },
          {
            "level": 2,
            "order": 2,
            "condition": {
              "dataset": "ADAE",
              "variable": "TRTAN",
              "comparator": "IN",
              "value": [
                "1",
                "3"
              ]
            }
          }
        ]
      }
    },
    {
      "name": "1st Occurrence of SOC for Serious, Xanomeline High Dose or Placebo",
      "id": "Dss_84",
      "level": 1,
      "order": 1,
      "compoundExpression": {
        "logicalOperator": "AND",
        "whereClauses": [
          {
            "level": 2,
            "order": 1,
            "condition": {
              "dataset": "ADAE",
              "variable": "AOCC03FL",
              "comparator": "EQ",
              "value": [
                "Y"
              ]
            }
          },
          {
            "level": 2,
            "order": 2,
            "condition": {
              "dataset": "ADAE",
              "variable": "TRTAN",
              "comparator": "IN",
              "value": [
                "2",
                "3"
              ]
            }
          }
        ]
      }
    },
    {
      "name": "1st Occurrence of Preferred Term for Serious, Xanomeline Low Dose or Placebo",
      "id": "Dss_85",
      "level": 1,
      "order": 1,
      "compoundExpression": {
        "logicalOperator": "AND",
        "whereClauses": [
          {
            "level": 2,
            "order": 1,
            "condition": {
              "dataset": "ADAE",
              "variable": "AOCC04FL",
              "comparator": "EQ",
              "value": [
                "Y"
              ]
            }
          },
          {
            "level": 2,
            "order": 2,
            "condition": {
              "dataset": "ADAE",
              "variable": "TRTAN",
              "comparator": "IN",
              "value": [
                "1",
                "3"
              ]
            }
          }
        ]
      }
    },
    {
      "name": "1st Occurrence of Preferred Term for Serious, Xanomeline High Dose or Placebo",
      "id": "Dss_86",
      "level": 1,
      "order": 1,
      "compoundExpression": {
        "logicalOperator": "AND",
        "whereClauses": [
          {
            "level": 2,
            "order": 1,
            "condition": {
              "dataset": "ADAE",
              "variable": "AOCC04FL",
              "comparator": "EQ",
              "value": [
                "Y"
              ]
            }
          },
          {
            "level": 2,
            "order": 2,
            "condition": {
              "dataset": "ADAE",
              "variable": "TRTAN",
              "comparator": "IN",
              "value": [
                "2",
                "3"
              ]
            }
          }
        ]
      }
    }
  ],
  "analysisGroupings": [
    {
      "name": "Treatment",
      "id": "AnlsGrouping_34_Trt01An",
      "dataDriven": false,
      "groupingDataset": "ADSL",
      "groupingVariable": "TRT01AN",
      "groups": [
        {
          "name": "Xanomeline Low Dose \n(N=XX)\nn (%)",
          "id": "AnlsGrouping_34_Trt01An_01",
          "level": 1,
          "order": 1,
          "condition": {
            "dataset": "ADSL",
            "variable": "TRT01AN",
            "comparator": "EQ",
            "value": [
              "1"
            ]
          }
        },
        {
          "name": "Xanomeline High Dose \n(N=XX)\nn (%)",
          "id": "AnlsGrouping_34_Trt01An_02",
          "level": 1,
          "order": 2,
          "condition": {
            "dataset": "ADSL",
            "variable": "TRT01AN",
            "comparator": "EQ",
            "value": [
              "2"
            ]
          }
        },
        {
          "name": "Placebo \n(N=XX)\nn (%)",
          "id": "AnlsGrouping_34_Trt01An_03",
          "level": 1,
          "order": 3,
          "condition": {
            "dataset": "ADSL",
            "variable": "TRT01AN",
            "comparator": "EQ",
            "value": [
              "3"
            ]
          }
        }
      ]
    },
    {
      "name": "Body System or Organ Class",
      "label": "SOC {alphabetical order}",
      "id": "AnlsGrouping_36_Aebodsys",
      "dataDriven": true,
      "groupingDataset": "ADAE",
      "groupingVariable": "AEBODSYS"
    },
    {
      "name": "Dictionary-Derived Term",
      "label": "PT {alphabetical order}",
      "id": "AnlsGrouping_37_Aedecod",
      "dataDriven": true,
      "groupingDataset": "ADAE",
      "groupingVariable": "AEDECOD"
    }
  ],
  "methods": [
    {
      "name": "bigN",
      "description": "Grouped summary of categorical variable",
      "label": "Descriptive summary statistics across groups for a categorical variable, based on subject occurrence",
      "id": "Mth_00_1",
      "operations": [
        {
          "name": "n",
          "label": "n",
          "id": "Mth_00_1_01_n",
          "order": 1,
          "resultPattern": "(N=XX)"
        }
      ],
      "codeTemplate": {
        "context": "R (siera)",
        "code": "in_data = df2_analysisidhere |>\n    dplyr::select(distinctlisthere) |>\n    unique() |>\n    dplyr::mutate(dummy = 'dummyvar')\n\ndf3_analysisidhere <-\n  cards::ard_tabulate(\n    data = in_data\n   ,by = c(byvarshere)\n   ,variables = dummy\n  ) |>\ndplyr::filter(stat_name == 'n') |>\n dplyr::mutate(operationid = 'opid1here')",
        "parameters": [
          {
            "name": "distinctlisthere",
            "label": "distinct list",
            "description": "grouping+analysis vars",
            "valueSource": "distinct_list"
          },
          {
            "name": "byvarshere",
            "label": "by vars",
            "description": "by-variable character vector",
            "valueSource": "by_listc"
          },
          {
            "name": "opid1here",
            "label": "op 1 id",
            "description": "Operation 1 ID",
            "valueSource": "operation_1"
          }
        ]
      }
    },
    {
      "name": "Summary by group of a categorical variable",
      "description": "Descriptive summary statistics across groups for a categorical variable, based on subject occurrence",
      "label": "Grouped summary of categorical variable",
      "id": "Mth_03",
      "operations": [
        {
          "name": "n",
          "label": "n",
          "id": "Mth_03_01_n",
          "order": 1,
          "resultPattern": "XX"
        },
        {
          "name": "%",
          "label": "%",
          "id": "Mth_03_02_%",
          "order": 2,
          "referencedOperationRelationships": [
            {
              "id": "Mth_03_pct_NUM",
              "referencedOperationRole": {
                "controlledTerm": "NUMERATOR"
              },
              "operationId": "Mth_03_01_n",
              "description": "The numerator for the calculation of the percentage."
            },
            {
              "id": "Mth_03_pct_DEN",
              "referencedOperationRole": {
                "controlledTerm": "DENOMINATOR"
              },
              "operationId": "Mth_00_1_01_n",
              "description": "The denominator for the calculation of the percentage."
            }
          ],
          "resultPattern": "(XX.X)"
        }
      ],
      "codeTemplate": {
        "context": "R (siera)",
        "code": "denom_dataset = df2_denomanaidhere |>\n    dplyr::count(denom_anagroupvarshere) |>\n    dplyr::rename(`...ard_N...` = n) |>\n    dplyr::mutate(dplyr::across(-`...ard_N...`, as.character))\n\ndf3_analysisidhere <- tryCatch({\nin_data = df2_analysisidhere |>\n    dplyr::select(distinctlisthere) |>\n    unique() |>\n    dplyr::mutate(dplyr::across(everything(), as.character)) |>\n    dplyr::mutate(dummy = 'dummyvar')\n\ncards::ard_tabulate(\n    data = in_data\n   ,by = c(byvarshere)\n   ,variables = dummy\n   ,denominator = denom_dataset\n  ) |>\ndplyr::filter(stat_name %in% c('n', 'p')) |>\n dplyr::mutate(operationid = dplyr::case_when(\n    stat_name == 'n' ~ 'opid1here',\n    stat_name == 'p' ~ 'opid2here'\n  ))\n}, error = function(e) {\n  message('analysisidhere: ', conditionMessage(e))\n  tibble::tibble(group1_level=character(0),group2_level=character(0),group3_level=character(0))\n})",
        "parameters": [
          {
            "name": "distinctlisthere",
            "label": "distinct list",
            "description": "grouping+analysis vars",
            "valueSource": "distinct_list"
          },
          {
            "name": "byvarshere",
            "label": "by vars",
            "description": "by-variable character vector",
            "valueSource": "by_listc"
          },
          {
            "name": "denomanaidhere",
            "label": "denom ana id",
            "description": "Denominator analysis ID",
            "valueSource": "DEN_analysisid"
          },
          {
            "name": "denom_anagroupvarshere",
            "label": "denom grp var",
            "description": "Denominator grouping variable",
            "valueSource": "AG_denom_var1"
          },
          {
            "name": "opid1here",
            "label": "n id",
            "description": "Operation ID for n",
            "valueSource": "operation_1"
          },
          {
            "name": "opid2here",
            "label": "% id",
            "description": "Operation ID for %",
            "valueSource": "operation_2"
          }
        ]
      }
    },
    {
      "name": "Summary by group of a categorical variable",
      "description": "Descriptive summary statistics across groups for a categorical variable, based on subject occurrence",
      "label": "Grouped summary of categorical variable",
      "id": "Mth_03_1",
      "operations": [
        {
          "name": "Risk Difference %",
          "label": "Risk Difference %",
          "id": "Mth_03_1_01_Risk_Difference_%",
          "order": 1,
          "resultPattern": "XX.X"
        },
        {
          "name": "95% CI Low",
          "label": "95% CI Low",
          "id": "Mth_03_1_02_95%_CI_Low",
          "order": 2,
          "resultPattern": "XX.X"
        },
        {
          "name": "95% CI High",
          "label": "95% CI High",
          "id": "Mth_03_1_03_95%_CI_High",
          "order": 3,
          "resultPattern": "XX.X"
        }
      ],
      "codeTemplate": {
        "context": "R (siera)",
        "code": ".arms_analysisidhere <- unique(df2_analysisidhere$groupvar1here)\nfull_analysisidhere <- if (length(.arms_analysisidhere) >= 2) {\n  df_poptot |> dplyr::filter(groupvar1here %in% .arms_analysisidhere)\n} else {\n  df_poptot\n}\n\nsuccess_analysisidhere = df2_analysisidhere |>\n    dplyr::distinct(anavarhere) |>\n    dplyr::mutate(FL = 1L)\n\nana_analysisidhere = full_analysisidhere |>\n    dplyr::left_join(\n        success_analysisidhere |> dplyr::select(anavarhere, FL),\n        by = \"anavarhere\"\n    ) |>\n    dplyr::mutate(FL = dplyr::if_else(is.na(FL), 0L, FL))\n\ngrp_analysisidhere <- sort(unique(ana_analysisidhere$groupvar1here))\n\nif (length(grp_analysisidhere) >= 2) {\nn1_analysisidhere <- sum(ana_analysisidhere$groupvar1here == grp_analysisidhere[[1]])\nn2_analysisidhere <- sum(ana_analysisidhere$groupvar1here == grp_analysisidhere[[2]])\nx1_analysisidhere <- sum(ana_analysisidhere$FL[ana_analysisidhere$groupvar1here == grp_analysisidhere[[1]]])\nx2_analysisidhere <- sum(ana_analysisidhere$FL[ana_analysisidhere$groupvar1here == grp_analysisidhere[[2]]])\npt_analysisidhere <- stats::prop.test(\n    x = c(x1_analysisidhere, x2_analysisidhere),\n    n = c(n1_analysisidhere, n2_analysisidhere),\n    correct = FALSE\n)\n\ndf3_analysisidhere <- tibble::tibble(\n    variable = \"FL\",\n    variable_level = list(NULL, NULL, NULL),\n    stat_name = c(\"estimate\", \"conf.low\", \"conf.high\"),\n    stat = list(\n        (pt_analysisidhere$estimate[[1]] - pt_analysisidhere$estimate[[2]]) * 100,\n        pt_analysisidhere$conf.int[[1]] * 100,\n        pt_analysisidhere$conf.int[[2]] * 100\n    ),\n    operationid = c('opid1here', 'opid2here', 'opid3here')\n)\n} else {\ndf3_analysisidhere <- tibble::tibble(\n    variable = \"FL\",\n    variable_level = list(NULL, NULL, NULL),\n    stat_name = c(\"estimate\", \"conf.low\", \"conf.high\"),\n    stat = list(NA_real_, NA_real_, NA_real_),\n    operationid = c('opid1here', 'opid2here', 'opid3here')\n)\n}",
        "parameters": [
          {
            "name": "groupvar1here",
            "label": "grp var 1",
            "description": "First analysis grouping variable",
            "valueSource": "AG_var1"
          },
          {
            "name": "anavarhere",
            "label": "ana var",
            "description": "Analysis variable (subject ID)",
            "valueSource": "ana_var"
          },
          {
            "name": "opid1here",
            "label": "RD id",
            "description": "Operation ID: Risk Difference %",
            "valueSource": "operation_1"
          },
          {
            "name": "opid2here",
            "label": "CI low id",
            "description": "Operation ID: 95% CI Low",
            "valueSource": "operation_2"
          },
          {
            "name": "opid3here",
            "label": "CI high id",
            "description": "Operation ID: 95% CI High",
            "valueSource": "operation_3"
          }
        ]
      }
    },
    {
      "id": "Mth_03a",
      "name": "Categorical n% (2-grouping: last grouping -> variables=)",
      "description": "Categorical n% for 2-grouping analyses: first grouping = by=, second = variables= in ard_tabulate",
      "label": "Categorical n% (2-grouping)",
      "operations": [
        {
          "id": "Mth_03a_01_n",
          "name": "n",
          "label": "n",
          "order": 1,
          "resultPattern": "XX"
        },
        {
          "id": "Mth_03a_02_%",
          "name": "%",
          "label": "%",
          "order": 2,
          "resultPattern": "XX.X",
          "referencedOperationRelationships": [
            {
              "id": "Mth_03a_pct_NUM",
              "description": "Numerator for percentage.",
              "referencedOperationRole": {
                "controlledTerm": "NUMERATOR"
              },
              "operationId": "Mth_03a_01_n"
            },
            {
              "id": "Mth_03a_pct_DEN",
              "description": "Denominator for percentage.",
              "referencedOperationRole": {
                "controlledTerm": "DENOMINATOR"
              },
              "operationId": "Mth_00_1_01_n"
            }
          ]
        }
      ],
      "codeTemplate": {
        "context": "R (siera)",
        "code": "denom_dataset = df2_denomanaidhere |>\n    dplyr::count(denom_anagroupvarshere) |>\n    dplyr::rename(`...ard_N...` = n) |>\n    dplyr::mutate(dplyr::across(-`...ard_N...`, as.character))\n\ndf3_analysisidhere <- tryCatch({\nin_data = df2_analysisidhere |>\n    dplyr::select(distinctlisthere) |>\n    unique() |>\n    dplyr::mutate(dplyr::across(everything(), as.character))\n\ncards::ard_tabulate(\n    data = in_data\n   byvarshere\n   ,denominator = denom_dataset\n  ) |>\ndplyr::filter(stat_name %in% c('n', 'p')) |>\ndplyr::rename(group2_level = variable_level) |>\n dplyr::mutate(operationid = dplyr::case_when(\n    stat_name == 'n' ~ 'opid1here',\n    stat_name == 'p' ~ 'opid2here'\n  ))\n}, error = function(e) {\n  message('analysisidhere: ', conditionMessage(e))\n  tibble::tibble(group1_level = character(0), group2_level = character(0))\n})",
        "parameters": [
          {
            "name": "distinctlisthere",
            "label": "distinct list",
            "description": "grouping+analysis vars",
            "valueSource": "distinct_list"
          },
          {
            "name": "byvarshere",
            "label": "by+vars",
            "description": "by= and variables= for ard_tabulate",
            "valueSource": "by_vars"
          },
          {
            "name": "denomanaidhere",
            "label": "denom ana id",
            "description": "Denominator analysis ID",
            "valueSource": "DEN_analysisid"
          },
          {
            "name": "denom_anagroupvarshere",
            "label": "denom grp var",
            "description": "Denominator grouping variable",
            "valueSource": "AG_denom_var1"
          },
          {
            "name": "opid1here",
            "label": "n id",
            "description": "Operation ID for n",
            "valueSource": "operation_1"
          },
          {
            "name": "opid2here",
            "label": "% id",
            "description": "Operation ID for %",
            "valueSource": "operation_2"
          }
        ]
      }
    },
    {
      "id": "Mth_03b",
      "name": "Categorical n% (3-grouping: first grouping -> by=, outer x inner category pair -> strata=)",
      "description": "Categorical n% for 3-grouping analyses such as treatment x SOC x PT: n and % per treatment arm x observed (outer, inner) category pair, zero-filled across arms, % over the referenced denominator analysis's arm count",
      "label": "Categorical n% (3-grouping)",
      "operations": [
        {
          "id": "Mth_03b_01_n",
          "name": "n",
          "label": "n",
          "order": 1,
          "resultPattern": "XX"
        },
        {
          "id": "Mth_03b_02_%",
          "name": "%",
          "label": "%",
          "order": 2,
          "resultPattern": "XX.X",
          "referencedOperationRelationships": [
            {
              "id": "Mth_03b_pct_NUM",
              "description": "Numerator for percentage.",
              "referencedOperationRole": {
                "controlledTerm": "NUMERATOR"
              },
              "operationId": "Mth_03b_01_n"
            },
            {
              "id": "Mth_03b_pct_DEN",
              "description": "Denominator for percentage.",
              "referencedOperationRole": {
                "controlledTerm": "DENOMINATOR"
              },
              "operationId": "Mth_00_1_01_n"
            }
          ]
        }
      ],
      "codeTemplate": {
        "context": "R (siera)",
        "code": "denom_dataset = df2_denomanaidhere |>\n    dplyr::count(denom_anagroupvarshere) |>\n    dplyr::rename(`...ard_N...` = n) |>\n    dplyr::mutate(dplyr::across(-`...ard_N...`, as.character))\n\n# Arms come from the denominator, so an arm with no event in the subset\n# still gets zero rows.\n.arms_analysisidhere <- denom_dataset$groupvar1here\n\nin_data = df2_analysisidhere |>\n    dplyr::distinct(dplyr::across(c(bylisthere, anavarhere))) |>\n    dplyr::mutate(dplyr::across(dplyr::everything(), as.character), dummy = 'dummyvar') |>\n    dplyr::mutate(groupvar1here = factor(groupvar1here, levels = .arms_analysisidhere))\n\n# cards needs every by/strata column in the denominator: repeat each arm's\n# count for every observed (outer, inner) category pair\ndenom_dataset = in_data |>\n    dplyr::distinct(groupvar2here, groupvar3here) |>\n    dplyr::cross_join(denom_dataset) |>\n    dplyr::mutate(groupvar1here = factor(groupvar1here, levels = .arms_analysisidhere))\n\ndf3_analysisidhere <- cards::ard_tabulate(\n    data = in_data,\n    by = 'groupvar1here',\n    strata = c('groupvar2here', 'groupvar3here'),\n    variables = 'dummy',\n    denominator = denom_dataset\n  ) |>\ndplyr::filter(stat_name %in% c('n', 'p')) |>\n dplyr::mutate(operationid = dplyr::case_when(\n    stat_name == 'n' ~ 'opid1here',\n    stat_name == 'p' ~ 'opid2here'\n  ))",
        "parameters": [
          {
            "name": "denomanaidhere",
            "label": "denom ana id",
            "description": "Denominator analysis ID",
            "valueSource": "DEN_analysisid"
          },
          {
            "name": "denom_anagroupvarshere",
            "label": "denom grp var",
            "description": "Denominator grouping variable",
            "valueSource": "AG_denom_var1"
          },
          {
            "name": "bylisthere",
            "label": "grouping vars",
            "description": "Quoted grouping variables (treatment, outer, inner)",
            "valueSource": "by_listc"
          },
          {
            "name": "anavarhere",
            "label": "ana var",
            "description": "Analysis variable (subject ID)",
            "valueSource": "ana_var"
          },
          {
            "name": "groupvar1here",
            "label": "grp var 1",
            "description": "First grouping variable (treatment arm)",
            "valueSource": "AG_var1"
          },
          {
            "name": "groupvar2here",
            "label": "grp var 2",
            "description": "Second grouping variable (outer category, e.g. SOC)",
            "valueSource": "AG_var2"
          },
          {
            "name": "groupvar3here",
            "label": "grp var 3",
            "description": "Third grouping variable (inner category, e.g. PT)",
            "valueSource": "AG_var3"
          },
          {
            "name": "opid1here",
            "label": "n id",
            "description": "Operation ID for n",
            "valueSource": "operation_1"
          },
          {
            "name": "opid2here",
            "label": "% id",
            "description": "Operation ID for %",
            "valueSource": "operation_2"
          }
        ]
      }
    }
  ],
  "analyses": [
    {
      "name": "Summary of Subjects by Treatment",
      "id": "An_65",
      "reason": {
        "controlledTerm": "SPECIFIED IN SAP"
      },
      "purpose": {
        "sponsorTermId": "TermEx01_01"
      },
      "methodId": "Mth_00_1",
      "version": 1,
      "categoryIds": [
        "ANSET_01",
        "ANSET_01_ANINT_05"
      ],
      "dataset": "ADAE",
      "variable": "USUBJID",
      "analysisSetId": "AnalysisSet_01",
      "orderedGroupings": [
        {
          "order": 1,
          "groupingId": "AnlsGrouping_34_Trt01An",
          "resultsByGroup": true
        }
      ],
      "results": [
        {
          "operationId": "Mth_00_1_01_n",
          "resultGroups": [
            {
              "groupingId": "AnlsGrouping_34_Trt01An",
              "groupId": "AnlsGrouping_34_Trt01An_01"
            }
          ],
          "rawValue": "84",
          "formattedValue": "(N=84)"
        },
        {
          "operationId": "Mth_00_1_01_n",
          "resultGroups": [
            {
              "groupingId": "AnlsGrouping_34_Trt01An",
              "groupId": "AnlsGrouping_34_Trt01An_02"
            }
          ],
          "rawValue": "84",
          "formattedValue": "(N=84)"
        },
        {
          "operationId": "Mth_00_1_01_n",
          "resultGroups": [
            {
              "groupingId": "AnlsGrouping_34_Trt01An",
              "groupId": "AnlsGrouping_34_Trt01An_03"
            }
          ],
          "rawValue": "86",
          "formattedValue": "(N=86)"
        }
      ]
    },
    {
      "name": "Summary of subjects with at least one treatment-emergent SAE by Treatment",
      "id": "An_66",
      "reason": {
        "controlledTerm": "DATA DRIVEN"
      },
      "purpose": {
        "controlledTerm": "SECONDARY OUTCOME MEASURE"
      },
      "methodId": "Mth_03",
      "version": 1,
      "categoryIds": [
        "ANSET_01",
        "ANSET_01_ANINT_05"
      ],
      "dataset": "ADAE",
      "variable": "USUBJID",
      "analysisSetId": "AnalysisSet_01",
      "dataSubsetId": "Dss_19",
      "orderedGroupings": [
        {
          "order": 1,
          "groupingId": "AnlsGrouping_34_Trt01An",
          "resultsByGroup": true
        }
      ],
      "referencedAnalysisOperations": [
        {
          "referencedOperationRelationshipId": "Mth_03_pct_NUM",
          "analysisId": "An_66"
        },
        {
          "referencedOperationRelationshipId": "Mth_03_pct_DEN",
          "analysisId": "An_65"
        }
      ],
      "results": [
        {
          "operationId": "Mth_03_01_n",
          "resultGroups": [
            {
              "groupingId": "AnlsGrouping_34_Trt01An",
              "groupId": "AnlsGrouping_34_Trt01An_01"
            }
          ],
          "rawValue": "1",
          "formattedValue": "1"
        },
        {
          "operationId": "Mth_03_02_%",
          "resultGroups": [
            {
              "groupingId": "AnlsGrouping_34_Trt01An",
              "groupId": "AnlsGrouping_34_Trt01An_01"
            }
          ],
          "rawValue": "1.1904761905",
          "formattedValue": "(1.2)"
        },
        {
          "operationId": "Mth_03_01_n",
          "resultGroups": [
            {
              "groupingId": "AnlsGrouping_34_Trt01An",
              "groupId": "AnlsGrouping_34_Trt01An_02"
            }
          ],
          "rawValue": "2",
          "formattedValue": "2"
        },
        {
          "operationId": "Mth_03_02_%",
          "resultGroups": [
            {
              "groupingId": "AnlsGrouping_34_Trt01An",
              "groupId": "AnlsGrouping_34_Trt01An_02"
            }
          ],
          "rawValue": "2.380952381",
          "formattedValue": "(2.4)"
        },
        {
          "operationId": "Mth_03_01_n",
          "resultGroups": [
            {
              "groupingId": "AnlsGrouping_34_Trt01An",
              "groupId": "AnlsGrouping_34_Trt01An_03"
            }
          ],
          "rawValue": "0",
          "formattedValue": "0"
        },
        {
          "operationId": "Mth_03_02_%",
          "resultGroups": [
            {
              "groupingId": "AnlsGrouping_34_Trt01An",
              "groupId": "AnlsGrouping_34_Trt01An_03"
            }
          ],
          "rawValue": "0",
          "formattedValue": "(0.0)"
        }
      ]
    },
    {
      "name": "Comparison of subjects with at least one treatment-emergent SAE, Xanomeline Low Dose vs Placebo",
      "id": "An_67",
      "reason": {
        "controlledTerm": "DATA DRIVEN"
      },
      "purpose": {
        "controlledTerm": "SECONDARY OUTCOME MEASURE"
      },
      "methodId": "Mth_03_1",
      "version": 1,
      "categoryIds": [
        "ANSET_01",
        "ANSET_01_ANINT_05"
      ],
      "dataset": "ADAE",
      "variable": "USUBJID",
      "analysisSetId": "AnalysisSet_01",
      "dataSubsetId": "Dss_81",
      "orderedGroupings": [
        {
          "order": 1,
          "groupingId": "AnlsGrouping_34_Trt01An",
          "resultsByGroup": false
        }
      ],
      "results": [
        {
          "operationId": "Mth_03_1_01_Risk_Difference_%",
          "resultGroups": [
            {
              "groupingId": "AnlsGrouping_34_Trt01An"
            }
          ],
          "rawValue": "1.2",
          "formattedValue": "1.2"
        },
        {
          "operationId": "Mth_03_1_02_95%_CI_Low",
          "resultGroups": [
            {
              "groupingId": "AnlsGrouping_34_Trt01An"
            }
          ],
          "rawValue": "-1.128549763",
          "formattedValue": "-1.1"
        },
        {
          "operationId": "Mth_03_1_03_95%_CI_High",
          "resultGroups": [
            {
              "groupingId": "AnlsGrouping_34_Trt01An"
            }
          ],
          "rawValue": "3.5285497633",
          "formattedValue": "3.5"
        }
      ]
    },
    {
      "name": "Comparison of subjects with at least one treatment-emergent SAE, Xanomeline High Dose vs Placebo",
      "id": "An_67_1",
      "reason": {
        "controlledTerm": "DATA DRIVEN"
      },
      "purpose": {
        "controlledTerm": "SECONDARY OUTCOME MEASURE"
      },
      "methodId": "Mth_03_1",
      "version": 1,
      "categoryIds": [
        "ANSET_01",
        "ANSET_01_ANINT_05"
      ],
      "dataset": "ADAE",
      "variable": "USUBJID",
      "analysisSetId": "AnalysisSet_01",
      "dataSubsetId": "Dss_82",
      "orderedGroupings": [
        {
          "order": 1,
          "groupingId": "AnlsGrouping_34_Trt01An",
          "resultsByGroup": false
        }
      ],
      "results": [
        {
          "operationId": "Mth_03_1_01_Risk_Difference_%",
          "resultGroups": [
            {
              "groupingId": "AnlsGrouping_34_Trt01An"
            }
          ],
          "rawValue": "2.4",
          "formattedValue": "2.4"
        },
        {
          "operationId": "Mth_03_1_02_95%_CI_Low",
          "resultGroups": [
            {
              "groupingId": "AnlsGrouping_34_Trt01An"
            }
          ],
          "rawValue": "-0.87300718",
          "formattedValue": "-0.9"
        },
        {
          "operationId": "Mth_03_1_03_95%_CI_High",
          "resultGroups": [
            {
              "groupingId": "AnlsGrouping_34_Trt01An"
            }
          ],
          "rawValue": "5.6730071799",
          "formattedValue": "5.7"
        }
      ]
    },
    {
      "name": "Summary of subjects with at least one treatment-emergent SAE by Treatment and SOC",
      "id": "An_68",
      "reason": {
        "controlledTerm": "DATA DRIVEN"
      },
      "purpose": {
        "controlledTerm": "SECONDARY OUTCOME MEASURE"
      },
      "methodId": "Mth_03a",
      "version": 1,
      "categoryIds": [
        "ANSET_01",
        "ANSET_01_ANINT_05"
      ],
      "dataset": "ADAE",
      "variable": "USUBJID",
      "analysisSetId": "AnalysisSet_01",
      "dataSubsetId": "Dss_20",
      "orderedGroupings": [
        {
          "order": 1,
          "groupingId": "AnlsGrouping_34_Trt01An",
          "resultsByGroup": true
        },
        {
          "order": 2,
          "groupingId": "AnlsGrouping_36_Aebodsys",
          "resultsByGroup": true
        }
      ],
      "referencedAnalysisOperations": [
        {
          "referencedOperationRelationshipId": "Mth_03_pct_NUM",
          "analysisId": "An_68"
        },
        {
          "referencedOperationRelationshipId": "Mth_03_pct_DEN",
          "analysisId": "An_65"
        }
      ],
      "results": [
        {
          "operationId": "Mth_03_01_n",
          "resultGroups": [
            {
              "groupingId": "AnlsGrouping_34_Trt01An",
              "groupId": "AnlsGrouping_34_Trt01An_01"
            },
            {
              "groupingId": "AnlsGrouping_36_Aebodsys",
              "groupValue": "NERVOUS SYSTEM DISORDERS"
            }
          ],
          "rawValue": "1",
          "formattedValue": "1"
        },
        {
          "operationId": "Mth_03_02_%",
          "resultGroups": [
            {
              "groupingId": "AnlsGrouping_34_Trt01An",
              "groupId": "AnlsGrouping_34_Trt01An_01"
            },
            {
              "groupingId": "AnlsGrouping_36_Aebodsys",
              "groupValue": "NERVOUS SYSTEM DISORDERS"
            }
          ],
          "rawValue": "1.1904761905",
          "formattedValue": "(1.2)"
        },
        {
          "operationId": "Mth_03_01_n",
          "resultGroups": [
            {
              "groupingId": "AnlsGrouping_34_Trt01An",
              "groupId": "AnlsGrouping_34_Trt01An_02"
            },
            {
              "groupingId": "AnlsGrouping_36_Aebodsys",
              "groupValue": "NERVOUS SYSTEM DISORDERS"
            }
          ],
          "rawValue": "2",
          "formattedValue": "2"
        },
        {
          "operationId": "Mth_03_02_%",
          "resultGroups": [
            {
              "groupingId": "AnlsGrouping_34_Trt01An",
              "groupId": "AnlsGrouping_34_Trt01An_02"
            },
            {
              "groupingId": "AnlsGrouping_36_Aebodsys",
              "groupValue": "NERVOUS SYSTEM DISORDERS"
            }
          ],
          "rawValue": "2.380952381",
          "formattedValue": "(2.4)"
        },
        {
          "operationId": "Mth_03_01_n",
          "resultGroups": [
            {
              "groupingId": "AnlsGrouping_34_Trt01An",
              "groupId": "AnlsGrouping_34_Trt01An_03"
            },
            {
              "groupingId": "AnlsGrouping_36_Aebodsys",
              "groupValue": "NERVOUS SYSTEM DISORDERS"
            }
          ],
          "rawValue": "0",
          "formattedValue": "0"
        },
        {
          "operationId": "Mth_03_02_%",
          "resultGroups": [
            {
              "groupingId": "AnlsGrouping_34_Trt01An",
              "groupId": "AnlsGrouping_34_Trt01An_03"
            },
            {
              "groupingId": "AnlsGrouping_36_Aebodsys",
              "groupValue": "NERVOUS SYSTEM DISORDERS"
            }
          ],
          "rawValue": "0",
          "formattedValue": "(0.0)"
        }
      ]
    },
    {
      "name": "Comparison of subjects with at least one treatment-emergent SAE by SOC, Xanomeline Low Dose vs Placebo",
      "id": "An_69",
      "reason": {
        "controlledTerm": "DATA DRIVEN"
      },
      "purpose": {
        "controlledTerm": "SECONDARY OUTCOME MEASURE"
      },
      "methodId": "Mth_03_1",
      "version": 1,
      "categoryIds": [
        "ANSET_01",
        "ANSET_01_ANINT_05"
      ],
      "dataset": "ADAE",
      "variable": "USUBJID",
      "analysisSetId": "AnalysisSet_01",
      "dataSubsetId": "Dss_83",
      "orderedGroupings": [
        {
          "order": 1,
          "groupingId": "AnlsGrouping_34_Trt01An",
          "resultsByGroup": false
        },
        {
          "order": 2,
          "groupingId": "AnlsGrouping_36_Aebodsys",
          "resultsByGroup": true
        }
      ],
      "results": [
        {
          "operationId": "Mth_03_1_01_Risk_Difference_%",
          "resultGroups": [
            {
              "groupingId": "AnlsGrouping_34_Trt01An"
            },
            {
              "groupingId": "AnlsGrouping_36_Aebodsys",
              "groupValue": "NERVOUS SYSTEM DISORDERS"
            }
          ],
          "rawValue": "1.2",
          "formattedValue": "1.2"
        },
        {
          "operationId": "Mth_03_1_02_95%_CI_Low",
          "resultGroups": [
            {
              "groupingId": "AnlsGrouping_34_Trt01An"
            },
            {
              "groupingId": "AnlsGrouping_36_Aebodsys",
              "groupValue": "NERVOUS SYSTEM DISORDERS"
            }
          ],
          "rawValue": "-1.128549763",
          "formattedValue": "-1.1"
        },
        {
          "operationId": "Mth_03_1_03_95%_CI_High",
          "resultGroups": [
            {
              "groupingId": "AnlsGrouping_34_Trt01An"
            },
            {
              "groupingId": "AnlsGrouping_36_Aebodsys",
              "groupValue": "NERVOUS SYSTEM DISORDERS"
            }
          ],
          "rawValue": "3.5285497633",
          "formattedValue": "3.5"
        }
      ]
    },
    {
      "name": "Comparison of subjects with at least one treatment-emergent SAE by SOC, Xanomeline High Dose vs Placebo",
      "id": "An_69_1",
      "reason": {
        "controlledTerm": "DATA DRIVEN"
      },
      "purpose": {
        "controlledTerm": "SECONDARY OUTCOME MEASURE"
      },
      "methodId": "Mth_03_1",
      "version": 1,
      "categoryIds": [
        "ANSET_01",
        "ANSET_01_ANINT_05"
      ],
      "dataset": "ADAE",
      "variable": "USUBJID",
      "analysisSetId": "AnalysisSet_01",
      "dataSubsetId": "Dss_84",
      "orderedGroupings": [
        {
          "order": 1,
          "groupingId": "AnlsGrouping_34_Trt01An",
          "resultsByGroup": false
        },
        {
          "order": 2,
          "groupingId": "AnlsGrouping_36_Aebodsys",
          "resultsByGroup": true
        }
      ],
      "results": [
        {
          "operationId": "Mth_03_1_01_Risk_Difference_%",
          "resultGroups": [
            {
              "groupingId": "AnlsGrouping_34_Trt01An"
            },
            {
              "groupingId": "AnlsGrouping_36_Aebodsys",
              "groupValue": "NERVOUS SYSTEM DISORDERS"
            }
          ],
          "rawValue": "2.4",
          "formattedValue": "2.4"
        },
        {
          "operationId": "Mth_03_1_02_95%_CI_Low",
          "resultGroups": [
            {
              "groupingId": "AnlsGrouping_34_Trt01An"
            },
            {
              "groupingId": "AnlsGrouping_36_Aebodsys",
              "groupValue": "NERVOUS SYSTEM DISORDERS"
            }
          ],
          "rawValue": "-0.87300718",
          "formattedValue": "-0.9"
        },
        {
          "operationId": "Mth_03_1_03_95%_CI_High",
          "resultGroups": [
            {
              "groupingId": "AnlsGrouping_34_Trt01An"
            },
            {
              "groupingId": "AnlsGrouping_36_Aebodsys",
              "groupValue": "NERVOUS SYSTEM DISORDERS"
            }
          ],
          "rawValue": "5.6730071799",
          "formattedValue": "5.7"
        }
      ]
    },
    {
      "name": "Summary of subjects with at least one treatment-emergent SAE by Treatment and PT",
      "id": "An_70",
      "reason": {
        "controlledTerm": "DATA DRIVEN"
      },
      "purpose": {
        "controlledTerm": "SECONDARY OUTCOME MEASURE"
      },
      "methodId": "Mth_03b",
      "version": 1,
      "categoryIds": [
        "ANSET_01",
        "ANSET_01_ANINT_05"
      ],
      "dataset": "ADAE",
      "variable": "USUBJID",
      "analysisSetId": "AnalysisSet_01",
      "dataSubsetId": "Dss_21",
      "orderedGroupings": [
        {
          "order": 1,
          "groupingId": "AnlsGrouping_34_Trt01An",
          "resultsByGroup": true
        },
        {
          "order": 2,
          "groupingId": "AnlsGrouping_36_Aebodsys",
          "resultsByGroup": true
        },
        {
          "order": 3,
          "groupingId": "AnlsGrouping_37_Aedecod",
          "resultsByGroup": true
        }
      ],
      "referencedAnalysisOperations": [
        {
          "referencedOperationRelationshipId": "Mth_03b_pct_NUM",
          "analysisId": "An_70"
        },
        {
          "referencedOperationRelationshipId": "Mth_03b_pct_DEN",
          "analysisId": "An_65"
        }
      ],
      "results": [
        {
          "operationId": "Mth_03_01_n",
          "resultGroups": [
            {
              "groupingId": "AnlsGrouping_34_Trt01An",
              "groupId": "AnlsGrouping_34_Trt01An_01"
            },
            {
              "groupingId": "AnlsGrouping_36_Aebodsys",
              "groupValue": "NERVOUS SYSTEM DISORDERS"
            },
            {
              "groupingId": "AnlsGrouping_37_Aedecod",
              "groupValue": "PARTIAL SEIZURES WITH SECONDARY GENERALISATION"
            }
          ],
          "rawValue": "0",
          "formattedValue": "0"
        },
        {
          "operationId": "Mth_03_02_%",
          "resultGroups": [
            {
              "groupingId": "AnlsGrouping_34_Trt01An",
              "groupId": "AnlsGrouping_34_Trt01An_01"
            },
            {
              "groupingId": "AnlsGrouping_36_Aebodsys",
              "groupValue": "NERVOUS SYSTEM DISORDERS"
            },
            {
              "groupingId": "AnlsGrouping_37_Aedecod",
              "groupValue": "PARTIAL SEIZURES WITH SECONDARY GENERALISATION"
            }
          ],
          "rawValue": "0",
          "formattedValue": "(0.0)"
        },
        {
          "operationId": "Mth_03_01_n",
          "resultGroups": [
            {
              "groupingId": "AnlsGrouping_34_Trt01An",
              "groupId": "AnlsGrouping_34_Trt01An_01"
            },
            {
              "groupingId": "AnlsGrouping_36_Aebodsys",
              "groupValue": "NERVOUS SYSTEM DISORDERS"
            },
            {
              "groupingId": "AnlsGrouping_37_Aedecod",
              "groupValue": "SYNCOPE"
            }
          ],
          "rawValue": "1",
          "formattedValue": "1"
        },
        {
          "operationId": "Mth_03_02_%",
          "resultGroups": [
            {
              "groupingId": "AnlsGrouping_34_Trt01An",
              "groupId": "AnlsGrouping_34_Trt01An_01"
            },
            {
              "groupingId": "AnlsGrouping_36_Aebodsys",
              "groupValue": "NERVOUS SYSTEM DISORDERS"
            },
            {
              "groupingId": "AnlsGrouping_37_Aedecod",
              "groupValue": "SYNCOPE"
            }
          ],
          "rawValue": "1.1904761905",
          "formattedValue": "(1.2)"
        },
        {
          "operationId": "Mth_03_01_n",
          "resultGroups": [
            {
              "groupingId": "AnlsGrouping_34_Trt01An",
              "groupId": "AnlsGrouping_34_Trt01An_02"
            },
            {
              "groupingId": "AnlsGrouping_36_Aebodsys",
              "groupValue": "NERVOUS SYSTEM DISORDERS"
            },
            {
              "groupingId": "AnlsGrouping_37_Aedecod",
              "groupValue": "PARTIAL SEIZURES WITH SECONDARY GENERALISATION"
            }
          ],
          "rawValue": "1",
          "formattedValue": "1"
        },
        {
          "operationId": "Mth_03_02_%",
          "resultGroups": [
            {
              "groupingId": "AnlsGrouping_34_Trt01An",
              "groupId": "AnlsGrouping_34_Trt01An_02"
            },
            {
              "groupingId": "AnlsGrouping_36_Aebodsys",
              "groupValue": "NERVOUS SYSTEM DISORDERS"
            },
            {
              "groupingId": "AnlsGrouping_37_Aedecod",
              "groupValue": "PARTIAL SEIZURES WITH SECONDARY GENERALISATION"
            }
          ],
          "rawValue": "1.1904761905",
          "formattedValue": "(1.2)"
        },
        {
          "operationId": "Mth_03_01_n",
          "resultGroups": [
            {
              "groupingId": "AnlsGrouping_34_Trt01An",
              "groupId": "AnlsGrouping_34_Trt01An_02"
            },
            {
              "groupingId": "AnlsGrouping_36_Aebodsys",
              "groupValue": "NERVOUS SYSTEM DISORDERS"
            },
            {
              "groupingId": "AnlsGrouping_37_Aedecod",
              "groupValue": "SYNCOPE"
            }
          ],
          "rawValue": "1",
          "formattedValue": "1"
        },
        {
          "operationId": "Mth_03_02_%",
          "resultGroups": [
            {
              "groupingId": "AnlsGrouping_34_Trt01An",
              "groupId": "AnlsGrouping_34_Trt01An_02"
            },
            {
              "groupingId": "AnlsGrouping_36_Aebodsys",
              "groupValue": "NERVOUS SYSTEM DISORDERS"
            },
            {
              "groupingId": "AnlsGrouping_37_Aedecod",
              "groupValue": "SYNCOPE"
            }
          ],
          "rawValue": "1.1904761905",
          "formattedValue": "(1.2)"
        },
        {
          "operationId": "Mth_03_01_n",
          "resultGroups": [
            {
              "groupingId": "AnlsGrouping_34_Trt01An",
              "groupId": "AnlsGrouping_34_Trt01An_03"
            },
            {
              "groupingId": "AnlsGrouping_36_Aebodsys",
              "groupValue": "NERVOUS SYSTEM DISORDERS"
            },
            {
              "groupingId": "AnlsGrouping_37_Aedecod",
              "groupValue": "PARTIAL SEIZURES WITH SECONDARY GENERALISATION"
            }
          ],
          "rawValue": "0",
          "formattedValue": "0"
        },
        {
          "operationId": "Mth_03_02_%",
          "resultGroups": [
            {
              "groupingId": "AnlsGrouping_34_Trt01An",
              "groupId": "AnlsGrouping_34_Trt01An_03"
            },
            {
              "groupingId": "AnlsGrouping_36_Aebodsys",
              "groupValue": "NERVOUS SYSTEM DISORDERS"
            },
            {
              "groupingId": "AnlsGrouping_37_Aedecod",
              "groupValue": "PARTIAL SEIZURES WITH SECONDARY GENERALISATION"
            }
          ],
          "rawValue": "0",
          "formattedValue": "(0.0)"
        },
        {
          "operationId": "Mth_03_01_n",
          "resultGroups": [
            {
              "groupingId": "AnlsGrouping_34_Trt01An",
              "groupId": "AnlsGrouping_34_Trt01An_03"
            },
            {
              "groupingId": "AnlsGrouping_36_Aebodsys",
              "groupValue": "NERVOUS SYSTEM DISORDERS"
            },
            {
              "groupingId": "AnlsGrouping_37_Aedecod",
              "groupValue": "SYNCOPE"
            }
          ],
          "rawValue": "0",
          "formattedValue": "0"
        },
        {
          "operationId": "Mth_03_02_%",
          "resultGroups": [
            {
              "groupingId": "AnlsGrouping_34_Trt01An",
              "groupId": "AnlsGrouping_34_Trt01An_03"
            },
            {
              "groupingId": "AnlsGrouping_36_Aebodsys",
              "groupValue": "NERVOUS SYSTEM DISORDERS"
            },
            {
              "groupingId": "AnlsGrouping_37_Aedecod",
              "groupValue": "SYNCOPE"
            }
          ],
          "rawValue": "0",
          "formattedValue": "(0.0)"
        }
      ]
    },
    {
      "name": "Comparison of subjects with at least one treatment-emergent SAE by PT, Xanomeline Low Dose vs Placebo",
      "id": "An_71",
      "reason": {
        "controlledTerm": "DATA DRIVEN"
      },
      "purpose": {
        "controlledTerm": "SECONDARY OUTCOME MEASURE"
      },
      "methodId": "Mth_03_1",
      "version": 1,
      "categoryIds": [
        "ANSET_01",
        "ANSET_01_ANINT_05"
      ],
      "dataset": "ADAE",
      "variable": "USUBJID",
      "analysisSetId": "AnalysisSet_01",
      "dataSubsetId": "Dss_85",
      "orderedGroupings": [
        {
          "order": 1,
          "groupingId": "AnlsGrouping_34_Trt01An",
          "resultsByGroup": false
        },
        {
          "order": 2,
          "groupingId": "AnlsGrouping_36_Aebodsys",
          "resultsByGroup": true
        },
        {
          "order": 3,
          "groupingId": "AnlsGrouping_37_Aedecod",
          "resultsByGroup": true
        }
      ],
      "results": [
        {
          "operationId": "Mth_03_1_01_Risk_Difference_%",
          "resultGroups": [
            {
              "groupingId": "AnlsGrouping_34_Trt01An"
            },
            {
              "groupingId": "AnlsGrouping_36_Aebodsys",
              "groupValue": "NERVOUS SYSTEM DISORDERS"
            },
            {
              "groupingId": "AnlsGrouping_37_Aedecod",
              "groupValue": "PARTIAL SEIZURES WITH SECONDARY GENERALISATION"
            }
          ],
          "rawValue": "0",
          "formattedValue": "0.0"
        },
        {
          "operationId": "Mth_03_1_02_95%_CI_Low",
          "resultGroups": [
            {
              "groupingId": "AnlsGrouping_34_Trt01An"
            },
            {
              "groupingId": "AnlsGrouping_36_Aebodsys",
              "groupValue": "NERVOUS SYSTEM DISORDERS"
            },
            {
              "groupingId": "AnlsGrouping_37_Aedecod",
              "groupValue": "PARTIAL SEIZURES WITH SECONDARY GENERALISATION"
            }
          ],
          "rawValue": "0",
          "formattedValue": "0.0"
        },
        {
          "operationId": "Mth_03_1_03_95%_CI_High",
          "resultGroups": [
            {
              "groupingId": "AnlsGrouping_34_Trt01An"
            },
            {
              "groupingId": "AnlsGrouping_36_Aebodsys",
              "groupValue": "NERVOUS SYSTEM DISORDERS"
            },
            {
              "groupingId": "AnlsGrouping_37_Aedecod",
              "groupValue": "PARTIAL SEIZURES WITH SECONDARY GENERALISATION"
            }
          ],
          "rawValue": "0",
          "formattedValue": "0.0"
        },
        {
          "operationId": "Mth_03_1_01_Risk_Difference_%",
          "resultGroups": [
            {
              "groupingId": "AnlsGrouping_34_Trt01An"
            },
            {
              "groupingId": "AnlsGrouping_36_Aebodsys",
              "groupValue": "NERVOUS SYSTEM DISORDERS"
            },
            {
              "groupingId": "AnlsGrouping_37_Aedecod",
              "groupValue": "SYNCOPE"
            }
          ],
          "rawValue": "1.2",
          "formattedValue": "1.2"
        },
        {
          "operationId": "Mth_03_1_02_95%_CI_Low",
          "resultGroups": [
            {
              "groupingId": "AnlsGrouping_34_Trt01An"
            },
            {
              "groupingId": "AnlsGrouping_36_Aebodsys",
              "groupValue": "NERVOUS SYSTEM DISORDERS"
            },
            {
              "groupingId": "AnlsGrouping_37_Aedecod",
              "groupValue": "SYNCOPE"
            }
          ],
          "rawValue": "-1.128549763",
          "formattedValue": "-1.1"
        },
        {
          "operationId": "Mth_03_1_03_95%_CI_High",
          "resultGroups": [
            {
              "groupingId": "AnlsGrouping_34_Trt01An"
            },
            {
              "groupingId": "AnlsGrouping_36_Aebodsys",
              "groupValue": "NERVOUS SYSTEM DISORDERS"
            },
            {
              "groupingId": "AnlsGrouping_37_Aedecod",
              "groupValue": "SYNCOPE"
            }
          ],
          "rawValue": "3.5285497633",
          "formattedValue": "3.5"
        }
      ]
    },
    {
      "name": "Comparison of subjects with at least one treatment-emergent SAE by PT, Xanomeline High Dose vs Placebo",
      "id": "An_71_1",
      "reason": {
        "controlledTerm": "DATA DRIVEN"
      },
      "purpose": {
        "controlledTerm": "SECONDARY OUTCOME MEASURE"
      },
      "methodId": "Mth_03_1",
      "version": 1,
      "categoryIds": [
        "ANSET_01",
        "ANSET_01_ANINT_05"
      ],
      "dataset": "ADAE",
      "variable": "USUBJID",
      "analysisSetId": "AnalysisSet_01",
      "dataSubsetId": "Dss_86",
      "orderedGroupings": [
        {
          "order": 1,
          "groupingId": "AnlsGrouping_34_Trt01An",
          "resultsByGroup": false
        },
        {
          "order": 2,
          "groupingId": "AnlsGrouping_36_Aebodsys",
          "resultsByGroup": true
        },
        {
          "order": 3,
          "groupingId": "AnlsGrouping_37_Aedecod",
          "resultsByGroup": true
        }
      ],
      "results": [
        {
          "operationId": "Mth_03_1_01_Risk_Difference_%",
          "resultGroups": [
            {
              "groupingId": "AnlsGrouping_34_Trt01An"
            },
            {
              "groupingId": "AnlsGrouping_36_Aebodsys",
              "groupValue": "NERVOUS SYSTEM DISORDERS"
            },
            {
              "groupingId": "AnlsGrouping_37_Aedecod",
              "groupValue": "PARTIAL SEIZURES WITH SECONDARY GENERALISATION"
            }
          ],
          "rawValue": "1.2",
          "formattedValue": "1.2"
        },
        {
          "operationId": "Mth_03_1_02_95%_CI_Low",
          "resultGroups": [
            {
              "groupingId": "AnlsGrouping_34_Trt01An"
            },
            {
              "groupingId": "AnlsGrouping_36_Aebodsys",
              "groupValue": "NERVOUS SYSTEM DISORDERS"
            },
            {
              "groupingId": "AnlsGrouping_37_Aedecod",
              "groupValue": "PARTIAL SEIZURES WITH SECONDARY GENERALISATION"
            }
          ],
          "rawValue": "-1.128549763",
          "formattedValue": "-1.1"
        },
        {
          "operationId": "Mth_03_1_03_95%_CI_High",
          "resultGroups": [
            {
              "groupingId": "AnlsGrouping_34_Trt01An"
            },
            {
              "groupingId": "AnlsGrouping_36_Aebodsys",
              "groupValue": "NERVOUS SYSTEM DISORDERS"
            },
            {
              "groupingId": "AnlsGrouping_37_Aedecod",
              "groupValue": "PARTIAL SEIZURES WITH SECONDARY GENERALISATION"
            }
          ],
          "rawValue": "3.5285497633",
          "formattedValue": "3.5"
        },
        {
          "operationId": "Mth_03_1_01_Risk_Difference_%",
          "resultGroups": [
            {
              "groupingId": "AnlsGrouping_34_Trt01An"
            },
            {
              "groupingId": "AnlsGrouping_36_Aebodsys",
              "groupValue": "NERVOUS SYSTEM DISORDERS"
            },
            {
              "groupingId": "AnlsGrouping_37_Aedecod",
              "groupValue": "SYNCOPE"
            }
          ],
          "rawValue": "1.2",
          "formattedValue": "1.2"
        },
        {
          "operationId": "Mth_03_1_02_95%_CI_Low",
          "resultGroups": [
            {
              "groupingId": "AnlsGrouping_34_Trt01An"
            },
            {
              "groupingId": "AnlsGrouping_36_Aebodsys",
              "groupValue": "NERVOUS SYSTEM DISORDERS"
            },
            {
              "groupingId": "AnlsGrouping_37_Aedecod",
              "groupValue": "SYNCOPE"
            }
          ],
          "rawValue": "-1.128549763",
          "formattedValue": "-1.1"
        },
        {
          "operationId": "Mth_03_1_03_95%_CI_High",
          "resultGroups": [
            {
              "groupingId": "AnlsGrouping_34_Trt01An"
            },
            {
              "groupingId": "AnlsGrouping_36_Aebodsys",
              "groupValue": "NERVOUS SYSTEM DISORDERS"
            },
            {
              "groupingId": "AnlsGrouping_37_Aedecod",
              "groupValue": "SYNCOPE"
            }
          ],
          "rawValue": "3.5285497633",
          "formattedValue": "3.5"
        }
      ]
    }
  ],
  "globalDisplaySections": [
    {
      "sectionType": "Header",
      "subSections": [
        {
          "id": "GlobalDisp_Header_01",
          "text": "CDISC - eTFL Portal"
        },
        {
          "id": "GlobalDisp_Header_02",
          "text": "Generated using TFL Designer (Community, v1.0)"
        },
        {
          "id": "GlobalDisp_Header_03",
          "text": "Page x of y"
        }
      ]
    }
  ],
  "outputs": [
    {
      "name": "Subjects With Serious Adverse Events by System Organ Class and Preferred Term",
      "id": "Out_07",
      "displays": [
        {
          "order": 1,
          "display": {
            "name": "=B3",
            "id": "Disp_07",
            "version": 1,
            "displayTitle": "=F3",
            "displaySections": [
              {
                "sectionType": "Header",
                "orderedSubSections": [
                  {
                    "order": 1,
                    "subSectionId": "GlobalDisp_Header_01"
                  },
                  {
                    "order": 2,
                    "subSectionId": "GlobalDisp_Header_02"
                  },
                  {
                    "order": 3,
                    "subSectionId": "GlobalDisp_Header_03"
                  }
                ]
              },
              {
                "sectionType": "Title",
                "orderedSubSections": [
                  {
                    "order": 1,
                    "subSection": {
                      "id": "Disp_07_Title_01",
                      "text": "FDA-AE-T09"
                    }
                  },
                  {
                    "order": 2,
                    "subSection": {
                      "id": "Disp_07_Title_02",
                      "text": "Subjects With Serious Adverse Events by System Organ Class and Preferred Term"
                    }
                  },
                  {
                    "order": 3,
                    "subSection": {
                      "id": "Disp_07_Title_03",
                      "text": "Safety Population"
                    }
                  }
                ]
              },
              {
                "sectionType": "Footnote",
                "orderedSubSections": [
                  {
                    "order": 1,
                    "subSection": {
                      "id": "Disp_07_Footnote_01",
                      "text": "Source: ADAE; Program name: fda-ae-t09.sas;"
                    }
                  },
                  {
                    "order": 2,
                    "subSection": {
                      "id": "Disp_07_Footnote_02",
                      "text": "Abbreviations: CI, confidence interval; MedDRA, Medical Dictionary for Regulatory Activities; N, number of subjects in treatment arm; n, number of subjects with at least one event; SOC, System Organ Class; PT, Preferred Term."
                    }
                  },
                  {
                    "order": 3,
                    "subSection": {
                      "id": "Disp_07_Footnote_03",
                      "text": "Note: Subjects are counted once within each system organ class and preferred term."
                    }
                  },
                  {
                    "order": 4,
                    "subSection": {
                      "id": "Disp_07_Footnote_04",
                      "text": "[1] All adverse events were coded using MedDRA version xx.x."
                    }
                  },
                  {
                    "order": 5,
                    "subSection": {
                      "id": "Disp_07_Footnote_05",
                      "text": "[2] Difference is shown between Xanomeline Low Dose vs. Placebo."
                    }
                  },
                  {
                    "order": 6,
                    "subSection": {
                      "id": "Disp_07_Footnote_06",
                      "text": "[3] Difference is shown between Xanomeline High Dose vs. Placebo."
                    }
                  },
                  {
                    "order": 7,
                    "subSection": {
                      "id": "Disp_07_Footnote_07",
                      "text": "[4] Treatment-emergent adverse event is defined as AE with onset after the first dose of study drug. SAE is defined as any untoward medical occurrence that, at any dose that results in death, is life-threatening, requires hospitalization or prolongation of existing hospitalization, results in persistent incapacity or substantial disruption of the ability to conduct normal life functions, or is a congenital anomaly or birth defect."
                    }
                  }
                ]
              },
              {
                "sectionType": "Rowlabel Header",
                "orderedSubSections": [
                  {
                    "order": 1,
                    "subSection": {
                      "id": "Disp_07_RowlabelHeader_01",
                      "text": "System Organ Class\n   Preferred Term [1]"
                    }
                  }
                ]
              }
            ]
          }
        }
      ],
      "version": 1,
      "categoryIds": [
        "ANSET_01",
        "ANSET_01_ANINT_05"
      ]
    }
  ],
  "@type": "ReportingEvent"
}
