{
  "name": "Subjects With Common Adverse Events Occurring at ≥X% Frequency",
  "id": "FDA-AE-T13",
  "mainListOfContents": {
    "name": "List of Planned Analyses",
    "label": "LOPA",
    "contentsList": {
      "listItems": [
        {
          "name": "Subjects With Common Adverse Events Occurring at ≥X% Frequency",
          "level": 1,
          "order": 1,
          "outputId": "Out_09",
          "sublist": {
            "listItems": [
              {
                "name": "    Summary of Subjects by Treatment",
                "level": 2,
                "order": 1,
                "analysisId": "An_79"
              },
              {
                "name": "    PT",
                "level": 2,
                "order": 2,
                "sublist": {
                  "listItems": [
                    {
                      "name": "        Summary of subjects by Treatment and PT",
                      "level": 3,
                      "order": 1,
                      "analysisId": "An_80"
                    },
                    {
                      "name": "        Comparison of subjects by PT, Xanomeline Low Dose vs Placebo",
                      "level": 3,
                      "order": 2,
                      "analysisId": "An_81"
                    },
                    {
                      "name": "        Comparison of subjects by PT, Xanomeline High Dose vs Placebo",
                      "level": 3,
                      "order": 3,
                      "analysisId": "An_81_1"
                    }
                  ]
                }
              }
            ]
          }
        }
      ]
    }
  },
  "version": 1,
  "otherListsOfContents": [
    {
      "name": "List of Planned Outputs",
      "label": "LOPO",
      "contentsList": {
        "listItems": [
          {
            "name": "Subjects With Common Adverse Events Occurring at ≥X% Frequency",
            "level": 1,
            "order": 1,
            "outputId": "Out_09"
          }
        ]
      }
    }
  ],
  "terminologyExtensions": [
    {
      "id": "TermEx01",
      "sponsorTerms": [
        {
          "id": "TermEx01_01",
          "submissionValue": "POPULATION SUMMARY",
          "description": "Summary statistics describing the study population(s)."
        }
      ],
      "enumeration": "AnalysisPurposeEnum"
    }
  ],
  "analysisOutputCategorizations": [
    {
      "id": "ANSET",
      "categories": [
        {
          "id": "ANSET_01",
          "label": "Safety",
          "subCategorizations": [
            {
              "id": "ANSET_01_ANINT",
              "categories": [
                {
                  "id": "ANSET_01_ANINT_05",
                  "label": "Adverse Events"
                }
              ],
              "label": "Safety Analysis Of Interest"
            }
          ]
        }
      ],
      "label": "Analysis Sets"
    }
  ],
  "analysisSets": [
    {
      "name": "Safety Population",
      "description": "All patients randomized and known to have taken at least one dose of randomized drug.",
      "id": "AnalysisSet_01",
      "level": 1,
      "order": 1,
      "condition": {
        "dataset": "ADSL",
        "variable": "SAFFL",
        "comparator": "EQ",
        "value": [
          "Y"
        ]
      }
    }
  ],
  "dataSubsets": [
    {
      "name": "Treatment Emergent",
      "id": "Dss_04",
      "level": 1,
      "order": 1,
      "compoundExpression": {
        "logicalOperator": "AND",
        "whereClauses": [
          {
            "level": 2,
            "order": 1,
            "condition": {
              "dataset": "ADAE",
              "variable": "TRTEMFL",
              "comparator": "EQ",
              "value": [
                "Y"
              ]
            }
          },
          {
            "level": 2,
            "order": 2,
            "condition": {
              "dataset": "ADAE",
              "variable": "AEDECOD",
              "comparator": "NE"
            }
          }
        ]
      }
    },
    {
      "name": "Treatment Emergent, Xanomeline Low Dose or Placebo",
      "id": "Dss_87",
      "level": 1,
      "order": 1,
      "compoundExpression": {
        "logicalOperator": "AND",
        "whereClauses": [
          {
            "level": 2,
            "order": 1,
            "condition": {
              "dataset": "ADAE",
              "variable": "TRTEMFL",
              "comparator": "EQ",
              "value": [
                "Y"
              ]
            }
          },
          {
            "level": 2,
            "order": 2,
            "condition": {
              "dataset": "ADAE",
              "variable": "AEDECOD",
              "comparator": "NE"
            }
          },
          {
            "level": 2,
            "order": 3,
            "condition": {
              "dataset": "ADAE",
              "variable": "TRTAN",
              "comparator": "IN",
              "value": [
                "1",
                "3"
              ]
            }
          }
        ]
      }
    },
    {
      "name": "Treatment Emergent, Xanomeline High Dose or Placebo",
      "id": "Dss_88",
      "level": 1,
      "order": 1,
      "compoundExpression": {
        "logicalOperator": "AND",
        "whereClauses": [
          {
            "level": 2,
            "order": 1,
            "condition": {
              "dataset": "ADAE",
              "variable": "TRTEMFL",
              "comparator": "EQ",
              "value": [
                "Y"
              ]
            }
          },
          {
            "level": 2,
            "order": 2,
            "condition": {
              "dataset": "ADAE",
              "variable": "AEDECOD",
              "comparator": "NE"
            }
          },
          {
            "level": 2,
            "order": 3,
            "condition": {
              "dataset": "ADAE",
              "variable": "TRTAN",
              "comparator": "IN",
              "value": [
                "2",
                "3"
              ]
            }
          }
        ]
      }
    }
  ],
  "analysisGroupings": [
    {
      "name": "Treatment",
      "id": "AnlsGrouping_45_Trt01An",
      "dataDriven": false,
      "groupingDataset": "ADSL",
      "groupingVariable": "TRT01AN",
      "groups": [
        {
          "name": "Xanomeline Low Dose \n(N=XX)\nn (%)",
          "id": "AnlsGrouping_45_Trt01An_01",
          "level": 1,
          "order": 1,
          "condition": {
            "dataset": "ADSL",
            "variable": "TRT01AN",
            "comparator": "EQ",
            "value": [
              "1"
            ]
          }
        },
        {
          "name": "Xanomeline High Dose \n(N=XX)\nn (%)",
          "id": "AnlsGrouping_45_Trt01An_02",
          "level": 1,
          "order": 2,
          "condition": {
            "dataset": "ADSL",
            "variable": "TRT01AN",
            "comparator": "EQ",
            "value": [
              "2"
            ]
          }
        },
        {
          "name": "Placebo \n(N=XX)\nn (%)",
          "id": "AnlsGrouping_45_Trt01An_03",
          "level": 1,
          "order": 3,
          "condition": {
            "dataset": "ADSL",
            "variable": "TRT01AN",
            "comparator": "EQ",
            "value": [
              "3"
            ]
          }
        }
      ]
    },
    {
      "name": "Dictionary-Derived Term",
      "label": "PT",
      "id": "AnlsGrouping_46_Aedecod",
      "dataDriven": true,
      "groupingDataset": "ADAE",
      "groupingVariable": "AEDECOD"
    }
  ],
  "methods": [
    {
      "name": "bigN",
      "description": "Grouped summary of categorical variable",
      "label": "Descriptive summary statistics across groups for a categorical variable, based on subject occurrence",
      "id": "Mth_00_1",
      "operations": [
        {
          "name": "n",
          "label": "n",
          "id": "Mth_00_1_01_n",
          "order": 1,
          "resultPattern": "(N=XX)"
        }
      ],
      "codeTemplate": {
        "context": "R (siera)",
        "code": "in_data = df2_analysisidhere |>\n    dplyr::select(distinctlisthere) |>\n    unique() |>\n    dplyr::mutate(dummy = 'dummyvar')\n\ndf3_analysisidhere <-\n  cards::ard_tabulate(\n    data = in_data\n   ,by = c(byvarshere)\n   ,variables = dummy\n  ) |>\ndplyr::filter(stat_name == 'n') |>\n dplyr::mutate(operationid = 'opid1here')",
        "parameters": [
          {
            "name": "distinctlisthere",
            "label": "distinct list",
            "description": "grouping+analysis vars",
            "valueSource": "distinct_list"
          },
          {
            "name": "byvarshere",
            "label": "by vars",
            "description": "by-variable character vector",
            "valueSource": "by_listc"
          },
          {
            "name": "opid1here",
            "label": "op 1 id",
            "description": "Operation 1 ID",
            "valueSource": "operation_1"
          }
        ]
      }
    },
    {
      "name": "Summary by group of a categorical variable",
      "description": "Descriptive summary statistics across groups for a categorical variable, based on subject occurrence",
      "label": "Grouped summary of categorical variable",
      "id": "Mth_03",
      "operations": [
        {
          "name": "n",
          "label": "n",
          "id": "Mth_03_01_n",
          "order": 1,
          "resultPattern": "XX"
        },
        {
          "name": "%",
          "label": "%",
          "id": "Mth_03_02_%",
          "order": 2,
          "referencedOperationRelationships": [
            {
              "id": "Mth_03_pct_NUM",
              "referencedOperationRole": {
                "controlledTerm": "NUMERATOR"
              },
              "operationId": "Mth_03_01_n",
              "description": "The numerator for the calculation of the percentage."
            },
            {
              "id": "Mth_03_pct_DEN",
              "referencedOperationRole": {
                "controlledTerm": "DENOMINATOR"
              },
              "operationId": "Mth_00_1_01_n",
              "description": "The denominator for the calculation of the percentage."
            }
          ],
          "resultPattern": "(XX.X)"
        }
      ],
      "codeTemplate": {
        "context": "R (siera)",
        "code": "denom_dataset = df2_denomanaidhere |>\n    dplyr::count(denom_anagroupvarshere) |>\n    dplyr::rename(`...ard_N...` = n) |>\n    dplyr::mutate(dplyr::across(-`...ard_N...`, as.character))\n\ndf3_analysisidhere <- tryCatch({\nin_data = df2_analysisidhere |>\n    dplyr::select(distinctlisthere) |>\n    unique() |>\n    dplyr::mutate(dplyr::across(everything(), as.character)) |>\n    dplyr::mutate(dummy = 'dummyvar')\n\ncards::ard_tabulate(\n    data = in_data\n   ,by = c(byvarshere)\n   ,variables = dummy\n   ,denominator = denom_dataset\n  ) |>\ndplyr::filter(stat_name %in% c('n', 'p')) |>\n dplyr::mutate(operationid = dplyr::case_when(\n    stat_name == 'n' ~ 'opid1here',\n    stat_name == 'p' ~ 'opid2here'\n  ))\n}, error = function(e) {\n  message('analysisidhere: ', conditionMessage(e))\n  tibble::tibble(group1_level=character(0),group2_level=character(0),group3_level=character(0))\n})",
        "parameters": [
          {
            "name": "distinctlisthere",
            "label": "distinct list",
            "description": "grouping+analysis vars",
            "valueSource": "distinct_list"
          },
          {
            "name": "byvarshere",
            "label": "by vars",
            "description": "by-variable character vector",
            "valueSource": "by_listc"
          },
          {
            "name": "denomanaidhere",
            "label": "denom ana id",
            "description": "Denominator analysis ID",
            "valueSource": "DEN_analysisid"
          },
          {
            "name": "denom_anagroupvarshere",
            "label": "denom grp var",
            "description": "Denominator grouping variable",
            "valueSource": "AG_denom_var1"
          },
          {
            "name": "opid1here",
            "label": "n id",
            "description": "Operation ID for n",
            "valueSource": "operation_1"
          },
          {
            "name": "opid2here",
            "label": "% id",
            "description": "Operation ID for %",
            "valueSource": "operation_2"
          }
        ]
      }
    },
    {
      "name": "Summary by group of a categorical variable",
      "description": "Descriptive summary statistics across groups for a categorical variable, based on subject occurrence",
      "label": "Grouped summary of categorical variable",
      "id": "Mth_03_1",
      "operations": [
        {
          "name": "Risk Difference %",
          "label": "Risk Difference %",
          "id": "Mth_03_1_01_Risk_Difference_%",
          "order": 1,
          "resultPattern": "XX.X"
        },
        {
          "name": "95% CI Low",
          "label": "95% CI Low",
          "id": "Mth_03_1_02_95%_CI_Low",
          "order": 2,
          "resultPattern": "XX.X"
        },
        {
          "name": "95% CI High",
          "label": "95% CI High",
          "id": "Mth_03_1_03_95%_CI_High",
          "order": 3,
          "resultPattern": "XX.X"
        }
      ],
      "codeTemplate": {
        "context": "R (siera)",
        "code": ".arms_analysisidhere <- unique(df2_analysisidhere$groupvar1here)\nfull_analysisidhere <- if (length(.arms_analysisidhere) >= 2) {\n  df_poptot |> dplyr::filter(groupvar1here %in% .arms_analysisidhere)\n} else {\n  df_poptot\n}\n\nsuccess_analysisidhere = df2_analysisidhere |>\n    dplyr::distinct(anavarhere) |>\n    dplyr::mutate(FL = 1L)\n\nana_analysisidhere = full_analysisidhere |>\n    dplyr::left_join(\n        success_analysisidhere |> dplyr::select(anavarhere, FL),\n        by = \"anavarhere\"\n    ) |>\n    dplyr::mutate(FL = dplyr::if_else(is.na(FL), 0L, FL))\n\ngrp_analysisidhere <- sort(unique(ana_analysisidhere$groupvar1here))\n\nif (length(grp_analysisidhere) >= 2) {\nn1_analysisidhere <- sum(ana_analysisidhere$groupvar1here == grp_analysisidhere[[1]])\nn2_analysisidhere <- sum(ana_analysisidhere$groupvar1here == grp_analysisidhere[[2]])\nx1_analysisidhere <- sum(ana_analysisidhere$FL[ana_analysisidhere$groupvar1here == grp_analysisidhere[[1]]])\nx2_analysisidhere <- sum(ana_analysisidhere$FL[ana_analysisidhere$groupvar1here == grp_analysisidhere[[2]]])\npt_analysisidhere <- stats::prop.test(\n    x = c(x1_analysisidhere, x2_analysisidhere),\n    n = c(n1_analysisidhere, n2_analysisidhere),\n    correct = FALSE\n)\n\ndf3_analysisidhere <- tibble::tibble(\n    variable = \"FL\",\n    variable_level = list(NULL, NULL, NULL),\n    stat_name = c(\"estimate\", \"conf.low\", \"conf.high\"),\n    stat = list(\n        (pt_analysisidhere$estimate[[1]] - pt_analysisidhere$estimate[[2]]) * 100,\n        pt_analysisidhere$conf.int[[1]] * 100,\n        pt_analysisidhere$conf.int[[2]] * 100\n    ),\n    operationid = c('opid1here', 'opid2here', 'opid3here')\n)\n} else {\ndf3_analysisidhere <- tibble::tibble(\n    variable = \"FL\",\n    variable_level = list(NULL, NULL, NULL),\n    stat_name = c(\"estimate\", \"conf.low\", \"conf.high\"),\n    stat = list(NA_real_, NA_real_, NA_real_),\n    operationid = c('opid1here', 'opid2here', 'opid3here')\n)\n}",
        "parameters": [
          {
            "name": "groupvar1here",
            "label": "grp var 1",
            "description": "First analysis grouping variable",
            "valueSource": "AG_var1"
          },
          {
            "name": "anavarhere",
            "label": "ana var",
            "description": "Analysis variable (subject ID)",
            "valueSource": "ana_var"
          },
          {
            "name": "opid1here",
            "label": "RD id",
            "description": "Operation ID: Risk Difference %",
            "valueSource": "operation_1"
          },
          {
            "name": "opid2here",
            "label": "CI low id",
            "description": "Operation ID: 95% CI Low",
            "valueSource": "operation_2"
          },
          {
            "name": "opid3here",
            "label": "CI high id",
            "description": "Operation ID: 95% CI High",
            "valueSource": "operation_3"
          }
        ]
      }
    },
    {
      "name": "Summary by group of a categorical variable, per inner category",
      "description": "Risk difference per data-driven inner category (e.g. PT/SOC) across two treatment groups, based on subject occurrence",
      "label": "Per-category risk difference across groups",
      "id": "Mth_03_1a",
      "operations": [
        {
          "name": "Risk Difference %",
          "label": "Risk Difference %",
          "id": "Mth_03_1a_01_Risk_Difference_%",
          "order": 1,
          "resultPattern": "XX.X"
        },
        {
          "name": "95% CI Low",
          "label": "95% CI Low",
          "id": "Mth_03_1a_02_95%_CI_Low",
          "order": 2,
          "resultPattern": "XX.X"
        },
        {
          "name": "95% CI High",
          "label": "95% CI High",
          "id": "Mth_03_1a_03_95%_CI_High",
          "order": 3,
          "resultPattern": "XX.X"
        }
      ],
      "codeTemplate": {
        "context": "R (siera)",
        "code": ".arms_analysisidhere <- utils::head(sort(unique(df2_analysisidhere$groupvar1here)), 2)\nfull_analysisidhere <- df_poptot |> dplyr::filter(groupvar1here %in% .arms_analysisidhere)\n\n.cats_analysisidhere <- sort(unique(as.character(df2_analysisidhere$groupvar2here)))\n\n.rd_one_analysisidhere <- function(.cat) {\n  success <- df2_analysisidhere |>\n      dplyr::filter(as.character(groupvar2here) == .cat) |>\n      dplyr::distinct(anavarhere) |>\n      dplyr::mutate(FL = 1L)\n  ana <- full_analysisidhere |>\n      dplyr::left_join(dplyr::select(success, anavarhere, FL), by = \"anavarhere\") |>\n      dplyr::mutate(FL = dplyr::if_else(is.na(FL), 0L, FL))\n  cardx::ard_stats_prop_test(data = ana, by = groupvar1here, variables = FL, correct = FALSE) |>\n      dplyr::filter(stat_name %in% c(\"estimate\", \"conf.low\", \"conf.high\")) |>\n      dplyr::mutate(\n          stat = lapply(stat, function(.v) .v * 100),\n          group2_level = .cat,\n          operationid = dplyr::case_when(\n              stat_name == \"estimate\"  ~ \"opid1here\",\n              stat_name == \"conf.low\"  ~ \"opid2here\",\n              stat_name == \"conf.high\" ~ \"opid3here\"\n          )\n      )\n}\n\ndf3_analysisidhere <- if (length(.arms_analysisidhere) >= 2 && length(.cats_analysisidhere) > 0) {\n  dplyr::bind_rows(lapply(.cats_analysisidhere, .rd_one_analysisidhere))\n} else {\n  tibble::tibble(variable = character(0), group2_level = character(0),\n                 stat_name = character(0), stat = list(),\n                 operationid = character(0))\n}",
        "parameters": [
          {
            "name": "groupvar1here",
            "label": "grp var 1",
            "description": "First analysis grouping variable (treatment arm)",
            "valueSource": "AG_var1"
          },
          {
            "name": "groupvar2here",
            "label": "grp var 2",
            "description": "Second analysis grouping variable (data-driven inner category)",
            "valueSource": "AG_var2"
          },
          {
            "name": "anavarhere",
            "label": "ana var",
            "description": "Analysis variable (subject ID)",
            "valueSource": "ana_var"
          },
          {
            "name": "opid1here",
            "label": "RD id",
            "description": "Operation ID: Risk Difference %",
            "valueSource": "operation_1"
          },
          {
            "name": "opid2here",
            "label": "CI low id",
            "description": "Operation ID: 95% CI Low",
            "valueSource": "operation_2"
          },
          {
            "name": "opid3here",
            "label": "CI high id",
            "description": "Operation ID: 95% CI High",
            "valueSource": "operation_3"
          }
        ]
      }
    },
    {
      "id": "Mth_03a",
      "name": "Categorical n% (2-grouping: last grouping -> variables=)",
      "description": "Categorical n% for 2-grouping analyses: first grouping = by=, second = variables= in ard_tabulate",
      "label": "Categorical n% (2-grouping)",
      "operations": [
        {
          "id": "Mth_03a_01_n",
          "name": "n",
          "label": "n",
          "order": 1,
          "resultPattern": "XX"
        },
        {
          "id": "Mth_03a_02_%",
          "name": "%",
          "label": "%",
          "order": 2,
          "resultPattern": "XX.X",
          "referencedOperationRelationships": [
            {
              "id": "Mth_03a_pct_NUM",
              "description": "Numerator for percentage.",
              "referencedOperationRole": {
                "controlledTerm": "NUMERATOR"
              },
              "operationId": "Mth_03a_01_n"
            },
            {
              "id": "Mth_03a_pct_DEN",
              "description": "Denominator for percentage.",
              "referencedOperationRole": {
                "controlledTerm": "DENOMINATOR"
              },
              "operationId": "Mth_00_1_01_n"
            }
          ]
        }
      ],
      "codeTemplate": {
        "context": "R (siera)",
        "code": "denom_dataset = df2_denomanaidhere |>\n    dplyr::count(denom_anagroupvarshere) |>\n    dplyr::rename(`...ard_N...` = n) |>\n    dplyr::mutate(dplyr::across(-`...ard_N...`, as.character))\n\ndf3_analysisidhere <- tryCatch({\nin_data = df2_analysisidhere |>\n    dplyr::select(distinctlisthere) |>\n    unique() |>\n    dplyr::mutate(dplyr::across(everything(), as.character))\n\ncards::ard_tabulate(\n    data = in_data\n   byvarshere\n   ,denominator = denom_dataset\n  ) |>\ndplyr::filter(stat_name %in% c('n', 'p')) |>\ndplyr::rename(group2_level = variable_level) |>\n dplyr::mutate(operationid = dplyr::case_when(\n    stat_name == 'n' ~ 'opid1here',\n    stat_name == 'p' ~ 'opid2here'\n  ))\n}, error = function(e) {\n  message('analysisidhere: ', conditionMessage(e))\n  tibble::tibble(group1_level = character(0), group2_level = character(0))\n})",
        "parameters": [
          {
            "name": "distinctlisthere",
            "label": "distinct list",
            "description": "grouping+analysis vars",
            "valueSource": "distinct_list"
          },
          {
            "name": "byvarshere",
            "label": "by+vars",
            "description": "by= and variables= for ard_tabulate",
            "valueSource": "by_vars"
          },
          {
            "name": "denomanaidhere",
            "label": "denom ana id",
            "description": "Denominator analysis ID",
            "valueSource": "DEN_analysisid"
          },
          {
            "name": "denom_anagroupvarshere",
            "label": "denom grp var",
            "description": "Denominator grouping variable",
            "valueSource": "AG_denom_var1"
          },
          {
            "name": "opid1here",
            "label": "n id",
            "description": "Operation ID for n",
            "valueSource": "operation_1"
          },
          {
            "name": "opid2here",
            "label": "% id",
            "description": "Operation ID for %",
            "valueSource": "operation_2"
          }
        ]
      }
    }
  ],
  "analyses": [
    {
      "name": "Summary of Subjects by Treatment",
      "id": "An_79",
      "reason": {
        "controlledTerm": "SPECIFIED IN SAP"
      },
      "purpose": {
        "sponsorTermId": "TermEx01_01"
      },
      "methodId": "Mth_00_1",
      "version": 1,
      "categoryIds": [
        "ANSET_01",
        "ANSET_01_ANINT_05"
      ],
      "dataset": "ADAE",
      "variable": "USUBJID",
      "analysisSetId": "AnalysisSet_01",
      "orderedGroupings": [
        {
          "order": 1,
          "groupingId": "AnlsGrouping_45_Trt01An",
          "resultsByGroup": true
        }
      ],
      "results": [
        {
          "operationId": "Mth_00_1_01_n",
          "resultGroups": [
            {
              "groupingId": "AnlsGrouping_45_Trt01An"
            }
          ],
          "rawValue": "84",
          "formattedValue": "(N=84)"
        },
        {
          "operationId": "Mth_00_1_01_n",
          "resultGroups": [
            {
              "groupingId": "AnlsGrouping_45_Trt01An"
            }
          ],
          "rawValue": "84",
          "formattedValue": "(N=84)"
        },
        {
          "operationId": "Mth_00_1_01_n",
          "resultGroups": [
            {
              "groupingId": "AnlsGrouping_45_Trt01An"
            }
          ],
          "rawValue": "86",
          "formattedValue": "(N=86)"
        }
      ]
    },
    {
      "name": "Summary of subjects by Treatment and PT",
      "id": "An_80",
      "reason": {
        "controlledTerm": "SPECIFIED IN SAP"
      },
      "purpose": {
        "controlledTerm": "PRIMARY OUTCOME MEASURE"
      },
      "methodId": "Mth_03a",
      "version": 1,
      "categoryIds": [
        "ANSET_01",
        "ANSET_01_ANINT_05"
      ],
      "dataset": "ADAE",
      "variable": "USUBJID",
      "analysisSetId": "AnalysisSet_01",
      "dataSubsetId": "Dss_04",
      "orderedGroupings": [
        {
          "order": 1,
          "groupingId": "AnlsGrouping_45_Trt01An",
          "resultsByGroup": true
        },
        {
          "order": 2,
          "groupingId": "AnlsGrouping_46_Aedecod",
          "resultsByGroup": true
        }
      ],
      "referencedAnalysisOperations": [
        {
          "referencedOperationRelationshipId": "Mth_03_pct_NUM",
          "analysisId": "An_80"
        },
        {
          "referencedOperationRelationshipId": "Mth_03_pct_DEN",
          "analysisId": "An_79"
        }
      ],
      "results": [
        {
          "operationId": "Mth_03_01_n",
          "resultGroups": [
            {
              "groupingId": "AnlsGrouping_45_Trt01An",
              "groupId": "AnlsGrouping_45_Trt01An_03"
            },
            {
              "groupingId": "AnlsGrouping_46_Aedecod",
              "groupValue": "APPLICATION SITE DERMATITIS"
            }
          ],
          "rawValue": "5",
          "formattedValue": "5"
        },
        {
          "operationId": "Mth_03_01_n",
          "resultGroups": [
            {
              "groupingId": "AnlsGrouping_45_Trt01An",
              "groupId": "AnlsGrouping_45_Trt01An_03"
            },
            {
              "groupingId": "AnlsGrouping_46_Aedecod",
              "groupValue": "RASH"
            }
          ],
          "rawValue": "5",
          "formattedValue": "5"
        },
        {
          "operationId": "Mth_03_01_n",
          "resultGroups": [
            {
              "groupingId": "AnlsGrouping_45_Trt01An",
              "groupId": "AnlsGrouping_45_Trt01An_03"
            },
            {
              "groupingId": "AnlsGrouping_46_Aedecod",
              "groupValue": "APPLICATION SITE PRURITUS"
            }
          ],
          "rawValue": "6",
          "formattedValue": "6"
        },
        {
          "operationId": "Mth_03_01_n",
          "resultGroups": [
            {
              "groupingId": "AnlsGrouping_45_Trt01An",
              "groupId": "AnlsGrouping_45_Trt01An_03"
            },
            {
              "groupingId": "AnlsGrouping_46_Aedecod",
              "groupValue": "UPPER RESPIRATORY TRACT INFECTION"
            }
          ],
          "rawValue": "6",
          "formattedValue": "6"
        },
        {
          "operationId": "Mth_03_01_n",
          "resultGroups": [
            {
              "groupingId": "AnlsGrouping_45_Trt01An",
              "groupId": "AnlsGrouping_45_Trt01An_03"
            },
            {
              "groupingId": "AnlsGrouping_46_Aedecod",
              "groupValue": "HEADACHE"
            }
          ],
          "rawValue": "7",
          "formattedValue": "7"
        },
        {
          "operationId": "Mth_03_01_n",
          "resultGroups": [
            {
              "groupingId": "AnlsGrouping_45_Trt01An",
              "groupId": "AnlsGrouping_45_Trt01An_03"
            },
            {
              "groupingId": "AnlsGrouping_46_Aedecod",
              "groupValue": "PRURITUS"
            }
          ],
          "rawValue": "8",
          "formattedValue": "8"
        },
        {
          "operationId": "Mth_03_01_n",
          "resultGroups": [
            {
              "groupingId": "AnlsGrouping_45_Trt01An",
              "groupId": "AnlsGrouping_45_Trt01An_03"
            },
            {
              "groupingId": "AnlsGrouping_46_Aedecod",
              "groupValue": "DIARRHOEA"
            }
          ],
          "rawValue": "9",
          "formattedValue": "9"
        },
        {
          "operationId": "Mth_03_01_n",
          "resultGroups": [
            {
              "groupingId": "AnlsGrouping_45_Trt01An",
              "groupId": "AnlsGrouping_45_Trt01An_03"
            },
            {
              "groupingId": "AnlsGrouping_46_Aedecod",
              "groupValue": "ERYTHEMA"
            }
          ],
          "rawValue": "9",
          "formattedValue": "9"
        },
        {
          "operationId": "Mth_03_01_n",
          "resultGroups": [
            {
              "groupingId": "AnlsGrouping_45_Trt01An",
              "groupId": "AnlsGrouping_45_Trt01An_02"
            },
            {
              "groupingId": "AnlsGrouping_46_Aedecod",
              "groupValue": "COUGH"
            }
          ],
          "rawValue": "5",
          "formattedValue": "5"
        },
        {
          "operationId": "Mth_03_01_n",
          "resultGroups": [
            {
              "groupingId": "AnlsGrouping_45_Trt01An",
              "groupId": "AnlsGrouping_45_Trt01An_02"
            },
            {
              "groupingId": "AnlsGrouping_46_Aedecod",
              "groupValue": "FATIGUE"
            }
          ],
          "rawValue": "5",
          "formattedValue": "5"
        },
        {
          "operationId": "Mth_03_01_n",
          "resultGroups": [
            {
              "groupingId": "AnlsGrouping_45_Trt01An",
              "groupId": "AnlsGrouping_45_Trt01An_02"
            },
            {
              "groupingId": "AnlsGrouping_46_Aedecod",
              "groupValue": "SKIN IRRITATION"
            }
          ],
          "rawValue": "5",
          "formattedValue": "5"
        },
        {
          "operationId": "Mth_03_01_n",
          "resultGroups": [
            {
              "groupingId": "AnlsGrouping_45_Trt01An",
              "groupId": "AnlsGrouping_45_Trt01An_02"
            },
            {
              "groupingId": "AnlsGrouping_46_Aedecod",
              "groupValue": "APPLICATION SITE VESICLES"
            }
          ],
          "rawValue": "6",
          "formattedValue": "6"
        },
        {
          "operationId": "Mth_03_01_n",
          "resultGroups": [
            {
              "groupingId": "AnlsGrouping_45_Trt01An",
              "groupId": "AnlsGrouping_45_Trt01An_02"
            },
            {
              "groupingId": "AnlsGrouping_46_Aedecod",
              "groupValue": "HEADACHE"
            }
          ],
          "rawValue": "6",
          "formattedValue": "6"
        },
        {
          "operationId": "Mth_03_01_n",
          "resultGroups": [
            {
              "groupingId": "AnlsGrouping_45_Trt01An",
              "groupId": "AnlsGrouping_45_Trt01An_02"
            },
            {
              "groupingId": "AnlsGrouping_46_Aedecod",
              "groupValue": "NASOPHARYNGITIS"
            }
          ],
          "rawValue": "6",
          "formattedValue": "6"
        },
        {
          "operationId": "Mth_03_01_n",
          "resultGroups": [
            {
              "groupingId": "AnlsGrouping_45_Trt01An",
              "groupId": "AnlsGrouping_45_Trt01An_02"
            },
            {
              "groupingId": "AnlsGrouping_46_Aedecod",
              "groupValue": "NAUSEA"
            }
          ],
          "rawValue": "6",
          "formattedValue": "6"
        },
        {
          "operationId": "Mth_03_01_n",
          "resultGroups": [
            {
              "groupingId": "AnlsGrouping_45_Trt01An",
              "groupId": "AnlsGrouping_45_Trt01An_02"
            },
            {
              "groupingId": "AnlsGrouping_46_Aedecod",
              "groupValue": "APPLICATION SITE DERMATITIS"
            }
          ],
          "rawValue": "7",
          "formattedValue": "7"
        },
        {
          "operationId": "Mth_03_01_n",
          "resultGroups": [
            {
              "groupingId": "AnlsGrouping_45_Trt01An",
              "groupId": "AnlsGrouping_45_Trt01An_02"
            },
            {
              "groupingId": "AnlsGrouping_46_Aedecod",
              "groupValue": "VOMITING"
            }
          ],
          "rawValue": "7",
          "formattedValue": "7"
        },
        {
          "operationId": "Mth_03_01_n",
          "resultGroups": [
            {
              "groupingId": "AnlsGrouping_45_Trt01An",
              "groupId": "AnlsGrouping_45_Trt01An_02"
            },
            {
              "groupingId": "AnlsGrouping_46_Aedecod",
              "groupValue": "HYPERHIDROSIS"
            }
          ],
          "rawValue": "8",
          "formattedValue": "8"
        },
        {
          "operationId": "Mth_03_01_n",
          "resultGroups": [
            {
              "groupingId": "AnlsGrouping_45_Trt01An",
              "groupId": "AnlsGrouping_45_Trt01An_02"
            },
            {
              "groupingId": "AnlsGrouping_46_Aedecod",
              "groupValue": "SINUS BRADYCARDIA"
            }
          ],
          "rawValue": "8",
          "formattedValue": "8"
        },
        {
          "operationId": "Mth_03_01_n",
          "resultGroups": [
            {
              "groupingId": "AnlsGrouping_45_Trt01An",
              "groupId": "AnlsGrouping_45_Trt01An_02"
            },
            {
              "groupingId": "AnlsGrouping_46_Aedecod",
              "groupValue": "APPLICATION SITE IRRITATION"
            }
          ],
          "rawValue": "9",
          "formattedValue": "9"
        },
        {
          "operationId": "Mth_03_01_n",
          "resultGroups": [
            {
              "groupingId": "AnlsGrouping_45_Trt01An",
              "groupId": "AnlsGrouping_45_Trt01An_02"
            },
            {
              "groupingId": "AnlsGrouping_46_Aedecod",
              "groupValue": "RASH"
            }
          ],
          "rawValue": "11",
          "formattedValue": "11"
        },
        {
          "operationId": "Mth_03_01_n",
          "resultGroups": [
            {
              "groupingId": "AnlsGrouping_45_Trt01An",
              "groupId": "AnlsGrouping_45_Trt01An_02"
            },
            {
              "groupingId": "AnlsGrouping_46_Aedecod",
              "groupValue": "DIZZINESS"
            }
          ],
          "rawValue": "12",
          "formattedValue": "12"
        },
        {
          "operationId": "Mth_03_01_n",
          "resultGroups": [
            {
              "groupingId": "AnlsGrouping_45_Trt01An",
              "groupId": "AnlsGrouping_45_Trt01An_02"
            },
            {
              "groupingId": "AnlsGrouping_46_Aedecod",
              "groupValue": "ERYTHEMA"
            }
          ],
          "rawValue": "14",
          "formattedValue": "14"
        },
        {
          "operationId": "Mth_03_01_n",
          "resultGroups": [
            {
              "groupingId": "AnlsGrouping_45_Trt01An",
              "groupId": "AnlsGrouping_45_Trt01An_02"
            },
            {
              "groupingId": "AnlsGrouping_46_Aedecod",
              "groupValue": "APPLICATION SITE ERYTHEMA"
            }
          ],
          "rawValue": "15",
          "formattedValue": "15"
        },
        {
          "operationId": "Mth_03_01_n",
          "resultGroups": [
            {
              "groupingId": "AnlsGrouping_45_Trt01An",
              "groupId": "AnlsGrouping_45_Trt01An_02"
            },
            {
              "groupingId": "AnlsGrouping_46_Aedecod",
              "groupValue": "APPLICATION SITE PRURITUS"
            }
          ],
          "rawValue": "22",
          "formattedValue": "22"
        },
        {
          "operationId": "Mth_03_01_n",
          "resultGroups": [
            {
              "groupingId": "AnlsGrouping_45_Trt01An",
              "groupId": "AnlsGrouping_45_Trt01An_02"
            },
            {
              "groupingId": "AnlsGrouping_46_Aedecod",
              "groupValue": "PRURITUS"
            }
          ],
          "rawValue": "26",
          "formattedValue": "26"
        },
        {
          "operationId": "Mth_03_01_n",
          "resultGroups": [
            {
              "groupingId": "AnlsGrouping_45_Trt01An",
              "groupId": "AnlsGrouping_45_Trt01An_01"
            },
            {
              "groupingId": "AnlsGrouping_46_Aedecod",
              "groupValue": "BLISTER"
            }
          ],
          "rawValue": "5",
          "formattedValue": "5"
        },
        {
          "operationId": "Mth_03_01_n",
          "resultGroups": [
            {
              "groupingId": "AnlsGrouping_45_Trt01An",
              "groupId": "AnlsGrouping_45_Trt01An_01"
            },
            {
              "groupingId": "AnlsGrouping_46_Aedecod",
              "groupValue": "DIARRHOEA"
            }
          ],
          "rawValue": "5",
          "formattedValue": "5"
        },
        {
          "operationId": "Mth_03_01_n",
          "resultGroups": [
            {
              "groupingId": "AnlsGrouping_45_Trt01An",
              "groupId": "AnlsGrouping_45_Trt01An_01"
            },
            {
              "groupingId": "AnlsGrouping_46_Aedecod",
              "groupValue": "FATIGUE"
            }
          ],
          "rawValue": "5",
          "formattedValue": "5"
        },
        {
          "operationId": "Mth_03_01_n",
          "resultGroups": [
            {
              "groupingId": "AnlsGrouping_45_Trt01An",
              "groupId": "AnlsGrouping_45_Trt01An_01"
            },
            {
              "groupingId": "AnlsGrouping_46_Aedecod",
              "groupValue": "COUGH"
            }
          ],
          "rawValue": "6",
          "formattedValue": "6"
        },
        {
          "operationId": "Mth_03_01_n",
          "resultGroups": [
            {
              "groupingId": "AnlsGrouping_45_Trt01An",
              "groupId": "AnlsGrouping_45_Trt01An_01"
            },
            {
              "groupingId": "AnlsGrouping_46_Aedecod",
              "groupValue": "SKIN IRRITATION"
            }
          ],
          "rawValue": "6",
          "formattedValue": "6"
        },
        {
          "operationId": "Mth_03_01_n",
          "resultGroups": [
            {
              "groupingId": "AnlsGrouping_45_Trt01An",
              "groupId": "AnlsGrouping_45_Trt01An_01"
            },
            {
              "groupingId": "AnlsGrouping_46_Aedecod",
              "groupValue": "SINUS BRADYCARDIA"
            }
          ],
          "rawValue": "7",
          "formattedValue": "7"
        },
        {
          "operationId": "Mth_03_01_n",
          "resultGroups": [
            {
              "groupingId": "AnlsGrouping_45_Trt01An",
              "groupId": "AnlsGrouping_45_Trt01An_01"
            },
            {
              "groupingId": "AnlsGrouping_46_Aedecod",
              "groupValue": "DIZZINESS"
            }
          ],
          "rawValue": "8",
          "formattedValue": "8"
        },
        {
          "operationId": "Mth_03_01_n",
          "resultGroups": [
            {
              "groupingId": "AnlsGrouping_45_Trt01An",
              "groupId": "AnlsGrouping_45_Trt01An_01"
            },
            {
              "groupingId": "AnlsGrouping_46_Aedecod",
              "groupValue": "APPLICATION SITE DERMATITIS"
            }
          ],
          "rawValue": "9",
          "formattedValue": "9"
        },
        {
          "operationId": "Mth_03_01_n",
          "resultGroups": [
            {
              "groupingId": "AnlsGrouping_45_Trt01An",
              "groupId": "AnlsGrouping_45_Trt01An_01"
            },
            {
              "groupingId": "AnlsGrouping_46_Aedecod",
              "groupValue": "APPLICATION SITE IRRITATION"
            }
          ],
          "rawValue": "9",
          "formattedValue": "9"
        },
        {
          "operationId": "Mth_03_01_n",
          "resultGroups": [
            {
              "groupingId": "AnlsGrouping_45_Trt01An",
              "groupId": "AnlsGrouping_45_Trt01An_01"
            },
            {
              "groupingId": "AnlsGrouping_46_Aedecod",
              "groupValue": "APPLICATION SITE ERYTHEMA"
            }
          ],
          "rawValue": "12",
          "formattedValue": "12"
        },
        {
          "operationId": "Mth_03_01_n",
          "resultGroups": [
            {
              "groupingId": "AnlsGrouping_45_Trt01An",
              "groupId": "AnlsGrouping_45_Trt01An_01"
            },
            {
              "groupingId": "AnlsGrouping_46_Aedecod",
              "groupValue": "RASH"
            }
          ],
          "rawValue": "13",
          "formattedValue": "13"
        },
        {
          "operationId": "Mth_03_01_n",
          "resultGroups": [
            {
              "groupingId": "AnlsGrouping_45_Trt01An",
              "groupId": "AnlsGrouping_45_Trt01An_01"
            },
            {
              "groupingId": "AnlsGrouping_46_Aedecod",
              "groupValue": "ERYTHEMA"
            }
          ],
          "rawValue": "15",
          "formattedValue": "15"
        },
        {
          "operationId": "Mth_03_01_n",
          "resultGroups": [
            {
              "groupingId": "AnlsGrouping_45_Trt01An",
              "groupId": "AnlsGrouping_45_Trt01An_01"
            },
            {
              "groupingId": "AnlsGrouping_46_Aedecod",
              "groupValue": "APPLICATION SITE PRURITUS"
            }
          ],
          "rawValue": "22",
          "formattedValue": "22"
        },
        {
          "operationId": "Mth_03_01_n",
          "resultGroups": [
            {
              "groupingId": "AnlsGrouping_45_Trt01An",
              "groupId": "AnlsGrouping_45_Trt01An_01"
            },
            {
              "groupingId": "AnlsGrouping_46_Aedecod",
              "groupValue": "PRURITUS"
            }
          ],
          "rawValue": "23",
          "formattedValue": "23"
        },
        {
          "operationId": "Mth_03_02_%",
          "resultGroups": [
            {
              "groupingId": "AnlsGrouping_45_Trt01An",
              "groupId": "AnlsGrouping_45_Trt01An_03"
            },
            {
              "groupingId": "AnlsGrouping_46_Aedecod",
              "groupValue": "APPLICATION SITE DERMATITIS"
            }
          ],
          "rawValue": "5.8139534884",
          "formattedValue": "(5.8)"
        },
        {
          "operationId": "Mth_03_02_%",
          "resultGroups": [
            {
              "groupingId": "AnlsGrouping_45_Trt01An",
              "groupId": "AnlsGrouping_45_Trt01An_03"
            },
            {
              "groupingId": "AnlsGrouping_46_Aedecod",
              "groupValue": "RASH"
            }
          ],
          "rawValue": "5.8139534884",
          "formattedValue": "(5.8)"
        },
        {
          "operationId": "Mth_03_02_%",
          "resultGroups": [
            {
              "groupingId": "AnlsGrouping_45_Trt01An",
              "groupId": "AnlsGrouping_45_Trt01An_03"
            },
            {
              "groupingId": "AnlsGrouping_46_Aedecod",
              "groupValue": "APPLICATION SITE PRURITUS"
            }
          ],
          "rawValue": "6.976744186",
          "formattedValue": "(7.0)"
        },
        {
          "operationId": "Mth_03_02_%",
          "resultGroups": [
            {
              "groupingId": "AnlsGrouping_45_Trt01An",
              "groupId": "AnlsGrouping_45_Trt01An_03"
            },
            {
              "groupingId": "AnlsGrouping_46_Aedecod",
              "groupValue": "UPPER RESPIRATORY TRACT INFECTION"
            }
          ],
          "rawValue": "6.976744186",
          "formattedValue": "(7.0)"
        },
        {
          "operationId": "Mth_03_02_%",
          "resultGroups": [
            {
              "groupingId": "AnlsGrouping_45_Trt01An",
              "groupId": "AnlsGrouping_45_Trt01An_03"
            },
            {
              "groupingId": "AnlsGrouping_46_Aedecod",
              "groupValue": "HEADACHE"
            }
          ],
          "rawValue": "8.1395348837",
          "formattedValue": "(8.1)"
        },
        {
          "operationId": "Mth_03_02_%",
          "resultGroups": [
            {
              "groupingId": "AnlsGrouping_45_Trt01An",
              "groupId": "AnlsGrouping_45_Trt01An_03"
            },
            {
              "groupingId": "AnlsGrouping_46_Aedecod",
              "groupValue": "PRURITUS"
            }
          ],
          "rawValue": "9.3023255814",
          "formattedValue": "(9.3)"
        },
        {
          "operationId": "Mth_03_02_%",
          "resultGroups": [
            {
              "groupingId": "AnlsGrouping_45_Trt01An",
              "groupId": "AnlsGrouping_45_Trt01An_03"
            },
            {
              "groupingId": "AnlsGrouping_46_Aedecod",
              "groupValue": "DIARRHOEA"
            }
          ],
          "rawValue": "10.465116279",
          "formattedValue": "(10.5)"
        },
        {
          "operationId": "Mth_03_02_%",
          "resultGroups": [
            {
              "groupingId": "AnlsGrouping_45_Trt01An",
              "groupId": "AnlsGrouping_45_Trt01An_03"
            },
            {
              "groupingId": "AnlsGrouping_46_Aedecod",
              "groupValue": "ERYTHEMA"
            }
          ],
          "rawValue": "10.465116279",
          "formattedValue": "(10.5)"
        },
        {
          "operationId": "Mth_03_02_%",
          "resultGroups": [
            {
              "groupingId": "AnlsGrouping_45_Trt01An",
              "groupId": "AnlsGrouping_45_Trt01An_02"
            },
            {
              "groupingId": "AnlsGrouping_46_Aedecod",
              "groupValue": "COUGH"
            }
          ],
          "rawValue": "5.9523809524",
          "formattedValue": "(6.0)"
        },
        {
          "operationId": "Mth_03_02_%",
          "resultGroups": [
            {
              "groupingId": "AnlsGrouping_45_Trt01An",
              "groupId": "AnlsGrouping_45_Trt01An_02"
            },
            {
              "groupingId": "AnlsGrouping_46_Aedecod",
              "groupValue": "FATIGUE"
            }
          ],
          "rawValue": "5.9523809524",
          "formattedValue": "(6.0)"
        },
        {
          "operationId": "Mth_03_02_%",
          "resultGroups": [
            {
              "groupingId": "AnlsGrouping_45_Trt01An",
              "groupId": "AnlsGrouping_45_Trt01An_02"
            },
            {
              "groupingId": "AnlsGrouping_46_Aedecod",
              "groupValue": "SKIN IRRITATION"
            }
          ],
          "rawValue": "5.9523809524",
          "formattedValue": "(6.0)"
        },
        {
          "operationId": "Mth_03_02_%",
          "resultGroups": [
            {
              "groupingId": "AnlsGrouping_45_Trt01An",
              "groupId": "AnlsGrouping_45_Trt01An_02"
            },
            {
              "groupingId": "AnlsGrouping_46_Aedecod",
              "groupValue": "APPLICATION SITE VESICLES"
            }
          ],
          "rawValue": "7.1428571429",
          "formattedValue": "(7.1)"
        },
        {
          "operationId": "Mth_03_02_%",
          "resultGroups": [
            {
              "groupingId": "AnlsGrouping_45_Trt01An",
              "groupId": "AnlsGrouping_45_Trt01An_02"
            },
            {
              "groupingId": "AnlsGrouping_46_Aedecod",
              "groupValue": "HEADACHE"
            }
          ],
          "rawValue": "7.1428571429",
          "formattedValue": "(7.1)"
        },
        {
          "operationId": "Mth_03_02_%",
          "resultGroups": [
            {
              "groupingId": "AnlsGrouping_45_Trt01An",
              "groupId": "AnlsGrouping_45_Trt01An_02"
            },
            {
              "groupingId": "AnlsGrouping_46_Aedecod",
              "groupValue": "NASOPHARYNGITIS"
            }
          ],
          "rawValue": "7.1428571429",
          "formattedValue": "(7.1)"
        },
        {
          "operationId": "Mth_03_02_%",
          "resultGroups": [
            {
              "groupingId": "AnlsGrouping_45_Trt01An",
              "groupId": "AnlsGrouping_45_Trt01An_02"
            },
            {
              "groupingId": "AnlsGrouping_46_Aedecod",
              "groupValue": "NAUSEA"
            }
          ],
          "rawValue": "7.1428571429",
          "formattedValue": "(7.1)"
        },
        {
          "operationId": "Mth_03_02_%",
          "resultGroups": [
            {
              "groupingId": "AnlsGrouping_45_Trt01An",
              "groupId": "AnlsGrouping_45_Trt01An_02"
            },
            {
              "groupingId": "AnlsGrouping_46_Aedecod",
              "groupValue": "APPLICATION SITE DERMATITIS"
            }
          ],
          "rawValue": "8.3333333333",
          "formattedValue": "(8.3)"
        },
        {
          "operationId": "Mth_03_02_%",
          "resultGroups": [
            {
              "groupingId": "AnlsGrouping_45_Trt01An",
              "groupId": "AnlsGrouping_45_Trt01An_02"
            },
            {
              "groupingId": "AnlsGrouping_46_Aedecod",
              "groupValue": "VOMITING"
            }
          ],
          "rawValue": "8.3333333333",
          "formattedValue": "(8.3)"
        },
        {
          "operationId": "Mth_03_02_%",
          "resultGroups": [
            {
              "groupingId": "AnlsGrouping_45_Trt01An",
              "groupId": "AnlsGrouping_45_Trt01An_02"
            },
            {
              "groupingId": "AnlsGrouping_46_Aedecod",
              "groupValue": "HYPERHIDROSIS"
            }
          ],
          "rawValue": "9.5238095238",
          "formattedValue": "(9.5)"
        },
        {
          "operationId": "Mth_03_02_%",
          "resultGroups": [
            {
              "groupingId": "AnlsGrouping_45_Trt01An",
              "groupId": "AnlsGrouping_45_Trt01An_02"
            },
            {
              "groupingId": "AnlsGrouping_46_Aedecod",
              "groupValue": "SINUS BRADYCARDIA"
            }
          ],
          "rawValue": "9.5238095238",
          "formattedValue": "(9.5)"
        },
        {
          "operationId": "Mth_03_02_%",
          "resultGroups": [
            {
              "groupingId": "AnlsGrouping_45_Trt01An",
              "groupId": "AnlsGrouping_45_Trt01An_02"
            },
            {
              "groupingId": "AnlsGrouping_46_Aedecod",
              "groupValue": "APPLICATION SITE IRRITATION"
            }
          ],
          "rawValue": "10.714285714",
          "formattedValue": "(10.7)"
        },
        {
          "operationId": "Mth_03_02_%",
          "resultGroups": [
            {
              "groupingId": "AnlsGrouping_45_Trt01An",
              "groupId": "AnlsGrouping_45_Trt01An_02"
            },
            {
              "groupingId": "AnlsGrouping_46_Aedecod",
              "groupValue": "RASH"
            }
          ],
          "rawValue": "13.095238095",
          "formattedValue": "(13.1)"
        },
        {
          "operationId": "Mth_03_02_%",
          "resultGroups": [
            {
              "groupingId": "AnlsGrouping_45_Trt01An",
              "groupId": "AnlsGrouping_45_Trt01An_02"
            },
            {
              "groupingId": "AnlsGrouping_46_Aedecod",
              "groupValue": "DIZZINESS"
            }
          ],
          "rawValue": "14.285714286",
          "formattedValue": "(14.3)"
        },
        {
          "operationId": "Mth_03_02_%",
          "resultGroups": [
            {
              "groupingId": "AnlsGrouping_45_Trt01An",
              "groupId": "AnlsGrouping_45_Trt01An_02"
            },
            {
              "groupingId": "AnlsGrouping_46_Aedecod",
              "groupValue": "ERYTHEMA"
            }
          ],
          "rawValue": "16.666666667",
          "formattedValue": "(16.7)"
        },
        {
          "operationId": "Mth_03_02_%",
          "resultGroups": [
            {
              "groupingId": "AnlsGrouping_45_Trt01An",
              "groupId": "AnlsGrouping_45_Trt01An_02"
            },
            {
              "groupingId": "AnlsGrouping_46_Aedecod",
              "groupValue": "APPLICATION SITE ERYTHEMA"
            }
          ],
          "rawValue": "17.857142857",
          "formattedValue": "(17.9)"
        },
        {
          "operationId": "Mth_03_02_%",
          "resultGroups": [
            {
              "groupingId": "AnlsGrouping_45_Trt01An",
              "groupId": "AnlsGrouping_45_Trt01An_02"
            },
            {
              "groupingId": "AnlsGrouping_46_Aedecod",
              "groupValue": "APPLICATION SITE PRURITUS"
            }
          ],
          "rawValue": "26.19047619",
          "formattedValue": "(26.2)"
        },
        {
          "operationId": "Mth_03_02_%",
          "resultGroups": [
            {
              "groupingId": "AnlsGrouping_45_Trt01An",
              "groupId": "AnlsGrouping_45_Trt01An_02"
            },
            {
              "groupingId": "AnlsGrouping_46_Aedecod",
              "groupValue": "PRURITUS"
            }
          ],
          "rawValue": "30.952380952",
          "formattedValue": "(31.0)"
        },
        {
          "operationId": "Mth_03_02_%",
          "resultGroups": [
            {
              "groupingId": "AnlsGrouping_45_Trt01An",
              "groupId": "AnlsGrouping_45_Trt01An_01"
            },
            {
              "groupingId": "AnlsGrouping_46_Aedecod",
              "groupValue": "BLISTER"
            }
          ],
          "rawValue": "5.9523809524",
          "formattedValue": "(6.0)"
        },
        {
          "operationId": "Mth_03_02_%",
          "resultGroups": [
            {
              "groupingId": "AnlsGrouping_45_Trt01An",
              "groupId": "AnlsGrouping_45_Trt01An_01"
            },
            {
              "groupingId": "AnlsGrouping_46_Aedecod",
              "groupValue": "DIARRHOEA"
            }
          ],
          "rawValue": "5.9523809524",
          "formattedValue": "(6.0)"
        },
        {
          "operationId": "Mth_03_02_%",
          "resultGroups": [
            {
              "groupingId": "AnlsGrouping_45_Trt01An",
              "groupId": "AnlsGrouping_45_Trt01An_01"
            },
            {
              "groupingId": "AnlsGrouping_46_Aedecod",
              "groupValue": "FATIGUE"
            }
          ],
          "rawValue": "5.9523809524",
          "formattedValue": "(6.0)"
        },
        {
          "operationId": "Mth_03_02_%",
          "resultGroups": [
            {
              "groupingId": "AnlsGrouping_45_Trt01An",
              "groupId": "AnlsGrouping_45_Trt01An_01"
            },
            {
              "groupingId": "AnlsGrouping_46_Aedecod",
              "groupValue": "COUGH"
            }
          ],
          "rawValue": "7.1428571429",
          "formattedValue": "(7.1)"
        },
        {
          "operationId": "Mth_03_02_%",
          "resultGroups": [
            {
              "groupingId": "AnlsGrouping_45_Trt01An",
              "groupId": "AnlsGrouping_45_Trt01An_01"
            },
            {
              "groupingId": "AnlsGrouping_46_Aedecod",
              "groupValue": "SKIN IRRITATION"
            }
          ],
          "rawValue": "7.1428571429",
          "formattedValue": "(7.1)"
        },
        {
          "operationId": "Mth_03_02_%",
          "resultGroups": [
            {
              "groupingId": "AnlsGrouping_45_Trt01An",
              "groupId": "AnlsGrouping_45_Trt01An_01"
            },
            {
              "groupingId": "AnlsGrouping_46_Aedecod",
              "groupValue": "SINUS BRADYCARDIA"
            }
          ],
          "rawValue": "8.3333333333",
          "formattedValue": "(8.3)"
        },
        {
          "operationId": "Mth_03_02_%",
          "resultGroups": [
            {
              "groupingId": "AnlsGrouping_45_Trt01An",
              "groupId": "AnlsGrouping_45_Trt01An_01"
            },
            {
              "groupingId": "AnlsGrouping_46_Aedecod",
              "groupValue": "DIZZINESS"
            }
          ],
          "rawValue": "9.5238095238",
          "formattedValue": "(9.5)"
        },
        {
          "operationId": "Mth_03_02_%",
          "resultGroups": [
            {
              "groupingId": "AnlsGrouping_45_Trt01An",
              "groupId": "AnlsGrouping_45_Trt01An_01"
            },
            {
              "groupingId": "AnlsGrouping_46_Aedecod",
              "groupValue": "APPLICATION SITE DERMATITIS"
            }
          ],
          "rawValue": "10.714285714",
          "formattedValue": "(10.7)"
        },
        {
          "operationId": "Mth_03_02_%",
          "resultGroups": [
            {
              "groupingId": "AnlsGrouping_45_Trt01An",
              "groupId": "AnlsGrouping_45_Trt01An_01"
            },
            {
              "groupingId": "AnlsGrouping_46_Aedecod",
              "groupValue": "APPLICATION SITE IRRITATION"
            }
          ],
          "rawValue": "10.714285714",
          "formattedValue": "(10.7)"
        },
        {
          "operationId": "Mth_03_02_%",
          "resultGroups": [
            {
              "groupingId": "AnlsGrouping_45_Trt01An",
              "groupId": "AnlsGrouping_45_Trt01An_01"
            },
            {
              "groupingId": "AnlsGrouping_46_Aedecod",
              "groupValue": "APPLICATION SITE ERYTHEMA"
            }
          ],
          "rawValue": "14.285714286",
          "formattedValue": "(14.3)"
        },
        {
          "operationId": "Mth_03_02_%",
          "resultGroups": [
            {
              "groupingId": "AnlsGrouping_45_Trt01An",
              "groupId": "AnlsGrouping_45_Trt01An_01"
            },
            {
              "groupingId": "AnlsGrouping_46_Aedecod",
              "groupValue": "RASH"
            }
          ],
          "rawValue": "15.476190476",
          "formattedValue": "(15.5)"
        },
        {
          "operationId": "Mth_03_02_%",
          "resultGroups": [
            {
              "groupingId": "AnlsGrouping_45_Trt01An",
              "groupId": "AnlsGrouping_45_Trt01An_01"
            },
            {
              "groupingId": "AnlsGrouping_46_Aedecod",
              "groupValue": "ERYTHEMA"
            }
          ],
          "rawValue": "17.857142857",
          "formattedValue": "(17.9)"
        },
        {
          "operationId": "Mth_03_02_%",
          "resultGroups": [
            {
              "groupingId": "AnlsGrouping_45_Trt01An",
              "groupId": "AnlsGrouping_45_Trt01An_01"
            },
            {
              "groupingId": "AnlsGrouping_46_Aedecod",
              "groupValue": "APPLICATION SITE PRURITUS"
            }
          ],
          "rawValue": "26.19047619",
          "formattedValue": "(26.2)"
        },
        {
          "operationId": "Mth_03_02_%",
          "resultGroups": [
            {
              "groupingId": "AnlsGrouping_45_Trt01An",
              "groupId": "AnlsGrouping_45_Trt01An_01"
            },
            {
              "groupingId": "AnlsGrouping_46_Aedecod",
              "groupValue": "PRURITUS"
            }
          ],
          "rawValue": "27.380952381",
          "formattedValue": "(27.4)"
        }
      ]
    },
    {
      "name": "Comparison of subjects by PT, Xanomeline Low Dose vs Placebo",
      "id": "An_81",
      "reason": {
        "controlledTerm": "SPECIFIED IN SAP"
      },
      "purpose": {
        "controlledTerm": "PRIMARY OUTCOME MEASURE"
      },
      "methodId": "Mth_03_1a",
      "version": 1,
      "categoryIds": [
        "ANSET_01",
        "ANSET_01_ANINT_05"
      ],
      "dataset": "ADAE",
      "variable": "USUBJID",
      "analysisSetId": "AnalysisSet_01",
      "dataSubsetId": "Dss_87",
      "orderedGroupings": [
        {
          "order": 1,
          "groupingId": "AnlsGrouping_45_Trt01An",
          "resultsByGroup": false
        },
        {
          "order": 2,
          "groupingId": "AnlsGrouping_46_Aedecod",
          "resultsByGroup": true
        }
      ],
      "results": [
        {
          "operationId": "Mth_03_1_01_Risk_Difference_%",
          "resultGroups": [
            {
              "groupingId": "AnlsGrouping_45_Trt01An",
              "groupId": "AnlsGrouping_45_Trt01An_02"
            },
            {
              "groupingId": "AnlsGrouping_46_Aedecod",
              "groupValue": "DIARRHOEA"
            }
          ],
          "rawValue": "-4.512735327",
          "formattedValue": "-4.5"
        },
        {
          "operationId": "Mth_03_1_01_Risk_Difference_%",
          "resultGroups": [
            {
              "groupingId": "AnlsGrouping_45_Trt01An",
              "groupId": "AnlsGrouping_45_Trt01An_02"
            },
            {
              "groupingId": "AnlsGrouping_46_Aedecod",
              "groupValue": "APPLICATION SITE DERMATITIS"
            }
          ],
          "rawValue": "4.9003322259",
          "formattedValue": "4.9"
        },
        {
          "operationId": "Mth_03_1_01_Risk_Difference_%",
          "resultGroups": [
            {
              "groupingId": "AnlsGrouping_45_Trt01An",
              "groupId": "AnlsGrouping_45_Trt01An_02"
            },
            {
              "groupingId": "AnlsGrouping_46_Aedecod",
              "groupValue": "BLISTER"
            }
          ],
          "rawValue": "5.9523809524",
          "formattedValue": "6.0"
        },
        {
          "operationId": "Mth_03_1_01_Risk_Difference_%",
          "resultGroups": [
            {
              "groupingId": "AnlsGrouping_45_Trt01An",
              "groupId": "AnlsGrouping_45_Trt01An_02"
            },
            {
              "groupingId": "AnlsGrouping_46_Aedecod",
              "groupValue": "FATIGUE"
            }
          ],
          "rawValue": "5.9523809524",
          "formattedValue": "6.0"
        },
        {
          "operationId": "Mth_03_1_01_Risk_Difference_%",
          "resultGroups": [
            {
              "groupingId": "AnlsGrouping_45_Trt01An",
              "groupId": "AnlsGrouping_45_Trt01An_02"
            },
            {
              "groupingId": "AnlsGrouping_46_Aedecod",
              "groupValue": "COUGH"
            }
          ],
          "rawValue": "7.1428571429",
          "formattedValue": "7.1"
        },
        {
          "operationId": "Mth_03_1_01_Risk_Difference_%",
          "resultGroups": [
            {
              "groupingId": "AnlsGrouping_45_Trt01An",
              "groupId": "AnlsGrouping_45_Trt01An_02"
            },
            {
              "groupingId": "AnlsGrouping_46_Aedecod",
              "groupValue": "SKIN IRRITATION"
            }
          ],
          "rawValue": "7.1428571429",
          "formattedValue": "7.1"
        },
        {
          "operationId": "Mth_03_1_01_Risk_Difference_%",
          "resultGroups": [
            {
              "groupingId": "AnlsGrouping_45_Trt01An",
              "groupId": "AnlsGrouping_45_Trt01An_02"
            },
            {
              "groupingId": "AnlsGrouping_46_Aedecod",
              "groupValue": "ERYTHEMA"
            }
          ],
          "rawValue": "7.3920265781",
          "formattedValue": "7.4"
        },
        {
          "operationId": "Mth_03_1_01_Risk_Difference_%",
          "resultGroups": [
            {
              "groupingId": "AnlsGrouping_45_Trt01An",
              "groupId": "AnlsGrouping_45_Trt01An_02"
            },
            {
              "groupingId": "AnlsGrouping_46_Aedecod",
              "groupValue": "SINUS BRADYCARDIA"
            }
          ],
          "rawValue": "8.3333333333",
          "formattedValue": "8.3"
        },
        {
          "operationId": "Mth_03_1_01_Risk_Difference_%",
          "resultGroups": [
            {
              "groupingId": "AnlsGrouping_45_Trt01An",
              "groupId": "AnlsGrouping_45_Trt01An_02"
            },
            {
              "groupingId": "AnlsGrouping_46_Aedecod",
              "groupValue": "DIZZINESS"
            }
          ],
          "rawValue": "9.5238095238",
          "formattedValue": "9.5"
        },
        {
          "operationId": "Mth_03_1_01_Risk_Difference_%",
          "resultGroups": [
            {
              "groupingId": "AnlsGrouping_45_Trt01An",
              "groupId": "AnlsGrouping_45_Trt01An_02"
            },
            {
              "groupingId": "AnlsGrouping_46_Aedecod",
              "groupValue": "RASH"
            }
          ],
          "rawValue": "9.6622369878",
          "formattedValue": "9.7"
        },
        {
          "operationId": "Mth_03_1_01_Risk_Difference_%",
          "resultGroups": [
            {
              "groupingId": "AnlsGrouping_45_Trt01An",
              "groupId": "AnlsGrouping_45_Trt01An_02"
            },
            {
              "groupingId": "AnlsGrouping_46_Aedecod",
              "groupValue": "APPLICATION SITE IRRITATION"
            }
          ],
          "rawValue": "10.714285714",
          "formattedValue": "10.7"
        },
        {
          "operationId": "Mth_03_1_01_Risk_Difference_%",
          "resultGroups": [
            {
              "groupingId": "AnlsGrouping_45_Trt01An",
              "groupId": "AnlsGrouping_45_Trt01An_02"
            },
            {
              "groupingId": "AnlsGrouping_46_Aedecod",
              "groupValue": "APPLICATION SITE ERYTHEMA"
            }
          ],
          "rawValue": "14.285714286",
          "formattedValue": "14.3"
        },
        {
          "operationId": "Mth_03_1_01_Risk_Difference_%",
          "resultGroups": [
            {
              "groupingId": "AnlsGrouping_45_Trt01An",
              "groupId": "AnlsGrouping_45_Trt01An_02"
            },
            {
              "groupingId": "AnlsGrouping_46_Aedecod",
              "groupValue": "PRURITUS"
            }
          ],
          "rawValue": "18.0786268",
          "formattedValue": "18.1"
        },
        {
          "operationId": "Mth_03_1_01_Risk_Difference_%",
          "resultGroups": [
            {
              "groupingId": "AnlsGrouping_45_Trt01An",
              "groupId": "AnlsGrouping_45_Trt01An_02"
            },
            {
              "groupingId": "AnlsGrouping_46_Aedecod",
              "groupValue": "APPLICATION SITE PRURITUS"
            }
          ],
          "rawValue": "19.213732004",
          "formattedValue": "19.2"
        },
        {
          "operationId": "Mth_03_1_02_95%_CI_Low",
          "resultGroups": [
            {
              "groupingId": "AnlsGrouping_45_Trt01An",
              "groupId": "AnlsGrouping_45_Trt01An_02"
            },
            {
              "groupingId": "AnlsGrouping_46_Aedecod",
              "groupValue": "DIARRHOEA"
            }
          ],
          "rawValue": "-12.72596306",
          "formattedValue": "-12.7"
        },
        {
          "operationId": "Mth_03_1_02_95%_CI_Low",
          "resultGroups": [
            {
              "groupingId": "AnlsGrouping_45_Trt01An",
              "groupId": "AnlsGrouping_45_Trt01An_02"
            },
            {
              "groupingId": "AnlsGrouping_46_Aedecod",
              "groupValue": "APPLICATION SITE DERMATITIS"
            }
          ],
          "rawValue": "-3.358654702",
          "formattedValue": "-3.4"
        },
        {
          "operationId": "Mth_03_1_02_95%_CI_Low",
          "resultGroups": [
            {
              "groupingId": "AnlsGrouping_45_Trt01An",
              "groupId": "AnlsGrouping_45_Trt01An_02"
            },
            {
              "groupingId": "AnlsGrouping_46_Aedecod",
              "groupValue": "ERYTHEMA"
            }
          ],
          "rawValue": "-3.045338576",
          "formattedValue": "-3.0"
        },
        {
          "operationId": "Mth_03_1_02_95%_CI_Low",
          "resultGroups": [
            {
              "groupingId": "AnlsGrouping_45_Trt01An",
              "groupId": "AnlsGrouping_45_Trt01An_02"
            },
            {
              "groupingId": "AnlsGrouping_46_Aedecod",
              "groupValue": "RASH"
            }
          ],
          "rawValue": "0.4815540527",
          "formattedValue": "0.5"
        },
        {
          "operationId": "Mth_03_1_02_95%_CI_Low",
          "resultGroups": [
            {
              "groupingId": "AnlsGrouping_45_Trt01An",
              "groupId": "AnlsGrouping_45_Trt01An_02"
            },
            {
              "groupingId": "AnlsGrouping_46_Aedecod",
              "groupValue": "BLISTER"
            }
          ],
          "rawValue": "0.8925536972",
          "formattedValue": "0.9"
        },
        {
          "operationId": "Mth_03_1_02_95%_CI_Low",
          "resultGroups": [
            {
              "groupingId": "AnlsGrouping_45_Trt01An",
              "groupId": "AnlsGrouping_45_Trt01An_02"
            },
            {
              "groupingId": "AnlsGrouping_46_Aedecod",
              "groupValue": "FATIGUE"
            }
          ],
          "rawValue": "0.8925536972",
          "formattedValue": "0.9"
        },
        {
          "operationId": "Mth_03_1_02_95%_CI_Low",
          "resultGroups": [
            {
              "groupingId": "AnlsGrouping_45_Trt01An",
              "groupId": "AnlsGrouping_45_Trt01An_02"
            },
            {
              "groupingId": "AnlsGrouping_46_Aedecod",
              "groupValue": "COUGH"
            }
          ],
          "rawValue": "1.6352865956",
          "formattedValue": "1.6"
        },
        {
          "operationId": "Mth_03_1_02_95%_CI_Low",
          "resultGroups": [
            {
              "groupingId": "AnlsGrouping_45_Trt01An",
              "groupId": "AnlsGrouping_45_Trt01An_02"
            },
            {
              "groupingId": "AnlsGrouping_46_Aedecod",
              "groupValue": "SKIN IRRITATION"
            }
          ],
          "rawValue": "1.6352865956",
          "formattedValue": "1.6"
        },
        {
          "operationId": "Mth_03_1_02_95%_CI_Low",
          "resultGroups": [
            {
              "groupingId": "AnlsGrouping_45_Trt01An",
              "groupId": "AnlsGrouping_45_Trt01An_02"
            },
            {
              "groupingId": "AnlsGrouping_46_Aedecod",
              "groupValue": "SINUS BRADYCARDIA"
            }
          ],
          "rawValue": "2.4227339403",
          "formattedValue": "2.4"
        },
        {
          "operationId": "Mth_03_1_02_95%_CI_Low",
          "resultGroups": [
            {
              "groupingId": "AnlsGrouping_45_Trt01An",
              "groupId": "AnlsGrouping_45_Trt01An_02"
            },
            {
              "groupingId": "AnlsGrouping_46_Aedecod",
              "groupValue": "DIZZINESS"
            }
          ],
          "rawValue": "3.2462775719",
          "formattedValue": "3.2"
        },
        {
          "operationId": "Mth_03_1_02_95%_CI_Low",
          "resultGroups": [
            {
              "groupingId": "AnlsGrouping_45_Trt01An",
              "groupId": "AnlsGrouping_45_Trt01An_02"
            },
            {
              "groupingId": "AnlsGrouping_46_Aedecod",
              "groupValue": "APPLICATION SITE IRRITATION"
            }
          ],
          "rawValue": "4.0999074366",
          "formattedValue": "4.1"
        },
        {
          "operationId": "Mth_03_1_02_95%_CI_Low",
          "resultGroups": [
            {
              "groupingId": "AnlsGrouping_45_Trt01An",
              "groupId": "AnlsGrouping_45_Trt01An_02"
            },
            {
              "groupingId": "AnlsGrouping_46_Aedecod",
              "groupValue": "PRURITUS"
            }
          ],
          "rawValue": "6.7374171388",
          "formattedValue": "6.7"
        },
        {
          "operationId": "Mth_03_1_02_95%_CI_Low",
          "resultGroups": [
            {
              "groupingId": "AnlsGrouping_45_Trt01An",
              "groupId": "AnlsGrouping_45_Trt01An_02"
            },
            {
              "groupingId": "AnlsGrouping_46_Aedecod",
              "groupValue": "APPLICATION SITE ERYTHEMA"
            }
          ],
          "rawValue": "6.8023995122",
          "formattedValue": "6.8"
        },
        {
          "operationId": "Mth_03_1_02_95%_CI_Low",
          "resultGroups": [
            {
              "groupingId": "AnlsGrouping_45_Trt01An",
              "groupId": "AnlsGrouping_45_Trt01An_02"
            },
            {
              "groupingId": "AnlsGrouping_46_Aedecod",
              "groupValue": "APPLICATION SITE PRURITUS"
            }
          ],
          "rawValue": "8.378693365",
          "formattedValue": "8.4"
        },
        {
          "operationId": "Mth_03_1_03_95%_CI_High",
          "resultGroups": [
            {
              "groupingId": "AnlsGrouping_45_Trt01An",
              "groupId": "AnlsGrouping_45_Trt01An_02"
            },
            {
              "groupingId": "AnlsGrouping_46_Aedecod",
              "groupValue": "DIARRHOEA"
            }
          ],
          "rawValue": "3.7004924115",
          "formattedValue": "3.7"
        },
        {
          "operationId": "Mth_03_1_03_95%_CI_High",
          "resultGroups": [
            {
              "groupingId": "AnlsGrouping_45_Trt01An",
              "groupId": "AnlsGrouping_45_Trt01An_02"
            },
            {
              "groupingId": "AnlsGrouping_46_Aedecod",
              "groupValue": "BLISTER"
            }
          ],
          "rawValue": "11.012208208",
          "formattedValue": "11.0"
        },
        {
          "operationId": "Mth_03_1_03_95%_CI_High",
          "resultGroups": [
            {
              "groupingId": "AnlsGrouping_45_Trt01An",
              "groupId": "AnlsGrouping_45_Trt01An_02"
            },
            {
              "groupingId": "AnlsGrouping_46_Aedecod",
              "groupValue": "FATIGUE"
            }
          ],
          "rawValue": "11.012208208",
          "formattedValue": "11.0"
        },
        {
          "operationId": "Mth_03_1_03_95%_CI_High",
          "resultGroups": [
            {
              "groupingId": "AnlsGrouping_45_Trt01An",
              "groupId": "AnlsGrouping_45_Trt01An_02"
            },
            {
              "groupingId": "AnlsGrouping_46_Aedecod",
              "groupValue": "COUGH"
            }
          ],
          "rawValue": "12.65042769",
          "formattedValue": "12.7"
        },
        {
          "operationId": "Mth_03_1_03_95%_CI_High",
          "resultGroups": [
            {
              "groupingId": "AnlsGrouping_45_Trt01An",
              "groupId": "AnlsGrouping_45_Trt01An_02"
            },
            {
              "groupingId": "AnlsGrouping_46_Aedecod",
              "groupValue": "SKIN IRRITATION"
            }
          ],
          "rawValue": "12.65042769",
          "formattedValue": "12.7"
        },
        {
          "operationId": "Mth_03_1_03_95%_CI_High",
          "resultGroups": [
            {
              "groupingId": "AnlsGrouping_45_Trt01An",
              "groupId": "AnlsGrouping_45_Trt01An_02"
            },
            {
              "groupingId": "AnlsGrouping_46_Aedecod",
              "groupValue": "APPLICATION SITE DERMATITIS"
            }
          ],
          "rawValue": "13.159319154",
          "formattedValue": "13.2"
        },
        {
          "operationId": "Mth_03_1_03_95%_CI_High",
          "resultGroups": [
            {
              "groupingId": "AnlsGrouping_45_Trt01An",
              "groupId": "AnlsGrouping_45_Trt01An_02"
            },
            {
              "groupingId": "AnlsGrouping_46_Aedecod",
              "groupValue": "SINUS BRADYCARDIA"
            }
          ],
          "rawValue": "14.243932726",
          "formattedValue": "14.2"
        },
        {
          "operationId": "Mth_03_1_03_95%_CI_High",
          "resultGroups": [
            {
              "groupingId": "AnlsGrouping_45_Trt01An",
              "groupId": "AnlsGrouping_45_Trt01An_02"
            },
            {
              "groupingId": "AnlsGrouping_46_Aedecod",
              "groupValue": "DIZZINESS"
            }
          ],
          "rawValue": "15.801341476",
          "formattedValue": "15.8"
        },
        {
          "operationId": "Mth_03_1_03_95%_CI_High",
          "resultGroups": [
            {
              "groupingId": "AnlsGrouping_45_Trt01An",
              "groupId": "AnlsGrouping_45_Trt01An_02"
            },
            {
              "groupingId": "AnlsGrouping_46_Aedecod",
              "groupValue": "APPLICATION SITE IRRITATION"
            }
          ],
          "rawValue": "17.328663992",
          "formattedValue": "17.3"
        },
        {
          "operationId": "Mth_03_1_03_95%_CI_High",
          "resultGroups": [
            {
              "groupingId": "AnlsGrouping_45_Trt01An",
              "groupId": "AnlsGrouping_45_Trt01An_02"
            },
            {
              "groupingId": "AnlsGrouping_46_Aedecod",
              "groupValue": "ERYTHEMA"
            }
          ],
          "rawValue": "17.829391732",
          "formattedValue": "17.8"
        },
        {
          "operationId": "Mth_03_1_03_95%_CI_High",
          "resultGroups": [
            {
              "groupingId": "AnlsGrouping_45_Trt01An",
              "groupId": "AnlsGrouping_45_Trt01An_02"
            },
            {
              "groupingId": "AnlsGrouping_46_Aedecod",
              "groupValue": "RASH"
            }
          ],
          "rawValue": "18.842919923",
          "formattedValue": "18.8"
        },
        {
          "operationId": "Mth_03_1_03_95%_CI_High",
          "resultGroups": [
            {
              "groupingId": "AnlsGrouping_45_Trt01An",
              "groupId": "AnlsGrouping_45_Trt01An_02"
            },
            {
              "groupingId": "AnlsGrouping_46_Aedecod",
              "groupValue": "APPLICATION SITE ERYTHEMA"
            }
          ],
          "rawValue": "21.769029059",
          "formattedValue": "21.8"
        },
        {
          "operationId": "Mth_03_1_03_95%_CI_High",
          "resultGroups": [
            {
              "groupingId": "AnlsGrouping_45_Trt01An",
              "groupId": "AnlsGrouping_45_Trt01An_02"
            },
            {
              "groupingId": "AnlsGrouping_46_Aedecod",
              "groupValue": "PRURITUS"
            }
          ],
          "rawValue": "29.41983646",
          "formattedValue": "29.4"
        },
        {
          "operationId": "Mth_03_1_03_95%_CI_High",
          "resultGroups": [
            {
              "groupingId": "AnlsGrouping_45_Trt01An",
              "groupId": "AnlsGrouping_45_Trt01An_02"
            },
            {
              "groupingId": "AnlsGrouping_46_Aedecod",
              "groupValue": "APPLICATION SITE PRURITUS"
            }
          ],
          "rawValue": "30.048770644",
          "formattedValue": "30.0"
        }
      ]
    },
    {
      "name": "Comparison of subjects by PT, Xanomeline High Dose vs Placebo",
      "id": "An_81_1",
      "reason": {
        "controlledTerm": "SPECIFIED IN SAP"
      },
      "purpose": {
        "controlledTerm": "PRIMARY OUTCOME MEASURE"
      },
      "methodId": "Mth_03_1a",
      "version": 1,
      "categoryIds": [
        "ANSET_01",
        "ANSET_01_ANINT_05"
      ],
      "dataset": "ADAE",
      "variable": "USUBJID",
      "analysisSetId": "AnalysisSet_01",
      "dataSubsetId": "Dss_88",
      "orderedGroupings": [
        {
          "order": 1,
          "groupingId": "AnlsGrouping_45_Trt01An",
          "resultsByGroup": false
        },
        {
          "order": 2,
          "groupingId": "AnlsGrouping_46_Aedecod",
          "resultsByGroup": true
        }
      ],
      "results": [
        {
          "operationId": "Mth_03_1_01_Risk_Difference_%",
          "resultGroups": [
            {
              "groupingId": "AnlsGrouping_45_Trt01An",
              "groupId": "AnlsGrouping_45_Trt01An_02"
            },
            {
              "groupingId": "AnlsGrouping_46_Aedecod",
              "groupValue": "HEADACHE"
            }
          ],
          "rawValue": "-0.996677741",
          "formattedValue": "-1.0"
        },
        {
          "operationId": "Mth_03_1_01_Risk_Difference_%",
          "resultGroups": [
            {
              "groupingId": "AnlsGrouping_45_Trt01An",
              "groupId": "AnlsGrouping_45_Trt01An_02"
            },
            {
              "groupingId": "AnlsGrouping_46_Aedecod",
              "groupValue": "APPLICATION SITE DERMATITIS"
            }
          ],
          "rawValue": "2.519379845",
          "formattedValue": "2.5"
        },
        {
          "operationId": "Mth_03_1_01_Risk_Difference_%",
          "resultGroups": [
            {
              "groupingId": "AnlsGrouping_45_Trt01An",
              "groupId": "AnlsGrouping_45_Trt01An_02"
            },
            {
              "groupingId": "AnlsGrouping_46_Aedecod",
              "groupValue": "COUGH"
            }
          ],
          "rawValue": "5.9523809524",
          "formattedValue": "6.0"
        },
        {
          "operationId": "Mth_03_1_01_Risk_Difference_%",
          "resultGroups": [
            {
              "groupingId": "AnlsGrouping_45_Trt01An",
              "groupId": "AnlsGrouping_45_Trt01An_02"
            },
            {
              "groupingId": "AnlsGrouping_46_Aedecod",
              "groupValue": "FATIGUE"
            }
          ],
          "rawValue": "5.9523809524",
          "formattedValue": "6.0"
        },
        {
          "operationId": "Mth_03_1_01_Risk_Difference_%",
          "resultGroups": [
            {
              "groupingId": "AnlsGrouping_45_Trt01An",
              "groupId": "AnlsGrouping_45_Trt01An_02"
            },
            {
              "groupingId": "AnlsGrouping_46_Aedecod",
              "groupValue": "SKIN IRRITATION"
            }
          ],
          "rawValue": "5.9523809524",
          "formattedValue": "6.0"
        },
        {
          "operationId": "Mth_03_1_01_Risk_Difference_%",
          "resultGroups": [
            {
              "groupingId": "AnlsGrouping_45_Trt01An",
              "groupId": "AnlsGrouping_45_Trt01An_02"
            },
            {
              "groupingId": "AnlsGrouping_46_Aedecod",
              "groupValue": "ERYTHEMA"
            }
          ],
          "rawValue": "6.2015503876",
          "formattedValue": "6.2"
        },
        {
          "operationId": "Mth_03_1_01_Risk_Difference_%",
          "resultGroups": [
            {
              "groupingId": "AnlsGrouping_45_Trt01An",
              "groupId": "AnlsGrouping_45_Trt01An_02"
            },
            {
              "groupingId": "AnlsGrouping_46_Aedecod",
              "groupValue": "APPLICATION SITE VESICLES"
            }
          ],
          "rawValue": "7.1428571429",
          "formattedValue": "7.1"
        },
        {
          "operationId": "Mth_03_1_01_Risk_Difference_%",
          "resultGroups": [
            {
              "groupingId": "AnlsGrouping_45_Trt01An",
              "groupId": "AnlsGrouping_45_Trt01An_02"
            },
            {
              "groupingId": "AnlsGrouping_46_Aedecod",
              "groupValue": "NASOPHARYNGITIS"
            }
          ],
          "rawValue": "7.1428571429",
          "formattedValue": "7.1"
        },
        {
          "operationId": "Mth_03_1_01_Risk_Difference_%",
          "resultGroups": [
            {
              "groupingId": "AnlsGrouping_45_Trt01An",
              "groupId": "AnlsGrouping_45_Trt01An_02"
            },
            {
              "groupingId": "AnlsGrouping_46_Aedecod",
              "groupValue": "NAUSEA"
            }
          ],
          "rawValue": "7.1428571429",
          "formattedValue": "7.1"
        },
        {
          "operationId": "Mth_03_1_01_Risk_Difference_%",
          "resultGroups": [
            {
              "groupingId": "AnlsGrouping_45_Trt01An",
              "groupId": "AnlsGrouping_45_Trt01An_02"
            },
            {
              "groupingId": "AnlsGrouping_46_Aedecod",
              "groupValue": "RASH"
            }
          ],
          "rawValue": "7.2812846069",
          "formattedValue": "7.3"
        },
        {
          "operationId": "Mth_03_1_01_Risk_Difference_%",
          "resultGroups": [
            {
              "groupingId": "AnlsGrouping_45_Trt01An",
              "groupId": "AnlsGrouping_45_Trt01An_02"
            },
            {
              "groupingId": "AnlsGrouping_46_Aedecod",
              "groupValue": "VOMITING"
            }
          ],
          "rawValue": "8.3333333333",
          "formattedValue": "8.3"
        },
        {
          "operationId": "Mth_03_1_01_Risk_Difference_%",
          "resultGroups": [
            {
              "groupingId": "AnlsGrouping_45_Trt01An",
              "groupId": "AnlsGrouping_45_Trt01An_02"
            },
            {
              "groupingId": "AnlsGrouping_46_Aedecod",
              "groupValue": "HYPERHIDROSIS"
            }
          ],
          "rawValue": "9.5238095238",
          "formattedValue": "9.5"
        },
        {
          "operationId": "Mth_03_1_01_Risk_Difference_%",
          "resultGroups": [
            {
              "groupingId": "AnlsGrouping_45_Trt01An",
              "groupId": "AnlsGrouping_45_Trt01An_02"
            },
            {
              "groupingId": "AnlsGrouping_46_Aedecod",
              "groupValue": "SINUS BRADYCARDIA"
            }
          ],
          "rawValue": "9.5238095238",
          "formattedValue": "9.5"
        },
        {
          "operationId": "Mth_03_1_01_Risk_Difference_%",
          "resultGroups": [
            {
              "groupingId": "AnlsGrouping_45_Trt01An",
              "groupId": "AnlsGrouping_45_Trt01An_02"
            },
            {
              "groupingId": "AnlsGrouping_46_Aedecod",
              "groupValue": "APPLICATION SITE IRRITATION"
            }
          ],
          "rawValue": "10.714285714",
          "formattedValue": "10.7"
        },
        {
          "operationId": "Mth_03_1_01_Risk_Difference_%",
          "resultGroups": [
            {
              "groupingId": "AnlsGrouping_45_Trt01An",
              "groupId": "AnlsGrouping_45_Trt01An_02"
            },
            {
              "groupingId": "AnlsGrouping_46_Aedecod",
              "groupValue": "DIZZINESS"
            }
          ],
          "rawValue": "14.285714286",
          "formattedValue": "14.3"
        },
        {
          "operationId": "Mth_03_1_01_Risk_Difference_%",
          "resultGroups": [
            {
              "groupingId": "AnlsGrouping_45_Trt01An",
              "groupId": "AnlsGrouping_45_Trt01An_02"
            },
            {
              "groupingId": "AnlsGrouping_46_Aedecod",
              "groupValue": "APPLICATION SITE ERYTHEMA"
            }
          ],
          "rawValue": "17.857142857",
          "formattedValue": "17.9"
        },
        {
          "operationId": "Mth_03_1_01_Risk_Difference_%",
          "resultGroups": [
            {
              "groupingId": "AnlsGrouping_45_Trt01An",
              "groupId": "AnlsGrouping_45_Trt01An_02"
            },
            {
              "groupingId": "AnlsGrouping_46_Aedecod",
              "groupValue": "APPLICATION SITE PRURITUS"
            }
          ],
          "rawValue": "19.213732004",
          "formattedValue": "19.2"
        },
        {
          "operationId": "Mth_03_1_01_Risk_Difference_%",
          "resultGroups": [
            {
              "groupingId": "AnlsGrouping_45_Trt01An",
              "groupId": "AnlsGrouping_45_Trt01An_02"
            },
            {
              "groupingId": "AnlsGrouping_46_Aedecod",
              "groupValue": "PRURITUS"
            }
          ],
          "rawValue": "21.650055371",
          "formattedValue": "21.7"
        },
        {
          "operationId": "Mth_03_1_02_95%_CI_Low",
          "resultGroups": [
            {
              "groupingId": "AnlsGrouping_45_Trt01An",
              "groupId": "AnlsGrouping_45_Trt01An_02"
            },
            {
              "groupingId": "AnlsGrouping_46_Aedecod",
              "groupValue": "HEADACHE"
            }
          ],
          "rawValue": "-8.979971778",
          "formattedValue": "-9.0"
        },
        {
          "operationId": "Mth_03_1_02_95%_CI_Low",
          "resultGroups": [
            {
              "groupingId": "AnlsGrouping_45_Trt01An",
              "groupId": "AnlsGrouping_45_Trt01An_02"
            },
            {
              "groupingId": "AnlsGrouping_46_Aedecod",
              "groupValue": "APPLICATION SITE DERMATITIS"
            }
          ],
          "rawValue": "-5.187503459",
          "formattedValue": "-5.2"
        },
        {
          "operationId": "Mth_03_1_02_95%_CI_Low",
          "resultGroups": [
            {
              "groupingId": "AnlsGrouping_45_Trt01An",
              "groupId": "AnlsGrouping_45_Trt01An_02"
            },
            {
              "groupingId": "AnlsGrouping_46_Aedecod",
              "groupValue": "ERYTHEMA"
            }
          ],
          "rawValue": "-4.063622604",
          "formattedValue": "-4.1"
        },
        {
          "operationId": "Mth_03_1_02_95%_CI_Low",
          "resultGroups": [
            {
              "groupingId": "AnlsGrouping_45_Trt01An",
              "groupId": "AnlsGrouping_45_Trt01An_02"
            },
            {
              "groupingId": "AnlsGrouping_46_Aedecod",
              "groupValue": "RASH"
            }
          ],
          "rawValue": "-1.465552615",
          "formattedValue": "-1.5"
        },
        {
          "operationId": "Mth_03_1_02_95%_CI_Low",
          "resultGroups": [
            {
              "groupingId": "AnlsGrouping_45_Trt01An",
              "groupId": "AnlsGrouping_45_Trt01An_02"
            },
            {
              "groupingId": "AnlsGrouping_46_Aedecod",
              "groupValue": "COUGH"
            }
          ],
          "rawValue": "0.8925536972",
          "formattedValue": "0.9"
        },
        {
          "operationId": "Mth_03_1_02_95%_CI_Low",
          "resultGroups": [
            {
              "groupingId": "AnlsGrouping_45_Trt01An",
              "groupId": "AnlsGrouping_45_Trt01An_02"
            },
            {
              "groupingId": "AnlsGrouping_46_Aedecod",
              "groupValue": "FATIGUE"
            }
          ],
          "rawValue": "0.8925536972",
          "formattedValue": "0.9"
        },
        {
          "operationId": "Mth_03_1_02_95%_CI_Low",
          "resultGroups": [
            {
              "groupingId": "AnlsGrouping_45_Trt01An",
              "groupId": "AnlsGrouping_45_Trt01An_02"
            },
            {
              "groupingId": "AnlsGrouping_46_Aedecod",
              "groupValue": "SKIN IRRITATION"
            }
          ],
          "rawValue": "0.8925536972",
          "formattedValue": "0.9"
        },
        {
          "operationId": "Mth_03_1_02_95%_CI_Low",
          "resultGroups": [
            {
              "groupingId": "AnlsGrouping_45_Trt01An",
              "groupId": "AnlsGrouping_45_Trt01An_02"
            },
            {
              "groupingId": "AnlsGrouping_46_Aedecod",
              "groupValue": "APPLICATION SITE VESICLES"
            }
          ],
          "rawValue": "1.6352865956",
          "formattedValue": "1.6"
        },
        {
          "operationId": "Mth_03_1_02_95%_CI_Low",
          "resultGroups": [
            {
              "groupingId": "AnlsGrouping_45_Trt01An",
              "groupId": "AnlsGrouping_45_Trt01An_02"
            },
            {
              "groupingId": "AnlsGrouping_46_Aedecod",
              "groupValue": "NASOPHARYNGITIS"
            }
          ],
          "rawValue": "1.6352865956",
          "formattedValue": "1.6"
        },
        {
          "operationId": "Mth_03_1_02_95%_CI_Low",
          "resultGroups": [
            {
              "groupingId": "AnlsGrouping_45_Trt01An",
              "groupId": "AnlsGrouping_45_Trt01An_02"
            },
            {
              "groupingId": "AnlsGrouping_46_Aedecod",
              "groupValue": "NAUSEA"
            }
          ],
          "rawValue": "1.6352865956",
          "formattedValue": "1.6"
        },
        {
          "operationId": "Mth_03_1_02_95%_CI_Low",
          "resultGroups": [
            {
              "groupingId": "AnlsGrouping_45_Trt01An",
              "groupId": "AnlsGrouping_45_Trt01An_02"
            },
            {
              "groupingId": "AnlsGrouping_46_Aedecod",
              "groupValue": "VOMITING"
            }
          ],
          "rawValue": "2.4227339403",
          "formattedValue": "2.4"
        },
        {
          "operationId": "Mth_03_1_02_95%_CI_Low",
          "resultGroups": [
            {
              "groupingId": "AnlsGrouping_45_Trt01An",
              "groupId": "AnlsGrouping_45_Trt01An_02"
            },
            {
              "groupingId": "AnlsGrouping_46_Aedecod",
              "groupValue": "HYPERHIDROSIS"
            }
          ],
          "rawValue": "3.2462775719",
          "formattedValue": "3.2"
        },
        {
          "operationId": "Mth_03_1_02_95%_CI_Low",
          "resultGroups": [
            {
              "groupingId": "AnlsGrouping_45_Trt01An",
              "groupId": "AnlsGrouping_45_Trt01An_02"
            },
            {
              "groupingId": "AnlsGrouping_46_Aedecod",
              "groupValue": "SINUS BRADYCARDIA"
            }
          ],
          "rawValue": "3.2462775719",
          "formattedValue": "3.2"
        },
        {
          "operationId": "Mth_03_1_02_95%_CI_Low",
          "resultGroups": [
            {
              "groupingId": "AnlsGrouping_45_Trt01An",
              "groupId": "AnlsGrouping_45_Trt01An_02"
            },
            {
              "groupingId": "AnlsGrouping_46_Aedecod",
              "groupValue": "APPLICATION SITE IRRITATION"
            }
          ],
          "rawValue": "4.0999074366",
          "formattedValue": "4.1"
        },
        {
          "operationId": "Mth_03_1_02_95%_CI_Low",
          "resultGroups": [
            {
              "groupingId": "AnlsGrouping_45_Trt01An",
              "groupId": "AnlsGrouping_45_Trt01An_02"
            },
            {
              "groupingId": "AnlsGrouping_46_Aedecod",
              "groupValue": "DIZZINESS"
            }
          ],
          "rawValue": "6.8023995122",
          "formattedValue": "6.8"
        },
        {
          "operationId": "Mth_03_1_02_95%_CI_Low",
          "resultGroups": [
            {
              "groupingId": "AnlsGrouping_45_Trt01An",
              "groupId": "AnlsGrouping_45_Trt01An_02"
            },
            {
              "groupingId": "AnlsGrouping_46_Aedecod",
              "groupValue": "APPLICATION SITE PRURITUS"
            }
          ],
          "rawValue": "8.378693365",
          "formattedValue": "8.4"
        },
        {
          "operationId": "Mth_03_1_02_95%_CI_Low",
          "resultGroups": [
            {
              "groupingId": "AnlsGrouping_45_Trt01An",
              "groupId": "AnlsGrouping_45_Trt01An_02"
            },
            {
              "groupingId": "AnlsGrouping_46_Aedecod",
              "groupValue": "APPLICATION SITE ERYTHEMA"
            }
          ],
          "rawValue": "9.6667012736",
          "formattedValue": "9.7"
        },
        {
          "operationId": "Mth_03_1_02_95%_CI_Low",
          "resultGroups": [
            {
              "groupingId": "AnlsGrouping_45_Trt01An",
              "groupId": "AnlsGrouping_45_Trt01An_02"
            },
            {
              "groupingId": "AnlsGrouping_46_Aedecod",
              "groupValue": "PRURITUS"
            }
          ],
          "rawValue": "10.012676279",
          "formattedValue": "10.0"
        },
        {
          "operationId": "Mth_03_1_03_95%_CI_High",
          "resultGroups": [
            {
              "groupingId": "AnlsGrouping_45_Trt01An",
              "groupId": "AnlsGrouping_45_Trt01An_02"
            },
            {
              "groupingId": "AnlsGrouping_46_Aedecod",
              "groupValue": "HEADACHE"
            }
          ],
          "rawValue": "6.986616296",
          "formattedValue": "7.0"
        },
        {
          "operationId": "Mth_03_1_03_95%_CI_High",
          "resultGroups": [
            {
              "groupingId": "AnlsGrouping_45_Trt01An",
              "groupId": "AnlsGrouping_45_Trt01An_02"
            },
            {
              "groupingId": "AnlsGrouping_46_Aedecod",
              "groupValue": "APPLICATION SITE DERMATITIS"
            }
          ],
          "rawValue": "10.226263149",
          "formattedValue": "10.2"
        },
        {
          "operationId": "Mth_03_1_03_95%_CI_High",
          "resultGroups": [
            {
              "groupingId": "AnlsGrouping_45_Trt01An",
              "groupId": "AnlsGrouping_45_Trt01An_02"
            },
            {
              "groupingId": "AnlsGrouping_46_Aedecod",
              "groupValue": "COUGH"
            }
          ],
          "rawValue": "11.012208208",
          "formattedValue": "11.0"
        },
        {
          "operationId": "Mth_03_1_03_95%_CI_High",
          "resultGroups": [
            {
              "groupingId": "AnlsGrouping_45_Trt01An",
              "groupId": "AnlsGrouping_45_Trt01An_02"
            },
            {
              "groupingId": "AnlsGrouping_46_Aedecod",
              "groupValue": "FATIGUE"
            }
          ],
          "rawValue": "11.012208208",
          "formattedValue": "11.0"
        },
        {
          "operationId": "Mth_03_1_03_95%_CI_High",
          "resultGroups": [
            {
              "groupingId": "AnlsGrouping_45_Trt01An",
              "groupId": "AnlsGrouping_45_Trt01An_02"
            },
            {
              "groupingId": "AnlsGrouping_46_Aedecod",
              "groupValue": "SKIN IRRITATION"
            }
          ],
          "rawValue": "11.012208208",
          "formattedValue": "11.0"
        },
        {
          "operationId": "Mth_03_1_03_95%_CI_High",
          "resultGroups": [
            {
              "groupingId": "AnlsGrouping_45_Trt01An",
              "groupId": "AnlsGrouping_45_Trt01An_02"
            },
            {
              "groupingId": "AnlsGrouping_46_Aedecod",
              "groupValue": "APPLICATION SITE VESICLES"
            }
          ],
          "rawValue": "12.65042769",
          "formattedValue": "12.7"
        },
        {
          "operationId": "Mth_03_1_03_95%_CI_High",
          "resultGroups": [
            {
              "groupingId": "AnlsGrouping_45_Trt01An",
              "groupId": "AnlsGrouping_45_Trt01An_02"
            },
            {
              "groupingId": "AnlsGrouping_46_Aedecod",
              "groupValue": "NASOPHARYNGITIS"
            }
          ],
          "rawValue": "12.65042769",
          "formattedValue": "12.7"
        },
        {
          "operationId": "Mth_03_1_03_95%_CI_High",
          "resultGroups": [
            {
              "groupingId": "AnlsGrouping_45_Trt01An",
              "groupId": "AnlsGrouping_45_Trt01An_02"
            },
            {
              "groupingId": "AnlsGrouping_46_Aedecod",
              "groupValue": "NAUSEA"
            }
          ],
          "rawValue": "12.65042769",
          "formattedValue": "12.7"
        },
        {
          "operationId": "Mth_03_1_03_95%_CI_High",
          "resultGroups": [
            {
              "groupingId": "AnlsGrouping_45_Trt01An",
              "groupId": "AnlsGrouping_45_Trt01An_02"
            },
            {
              "groupingId": "AnlsGrouping_46_Aedecod",
              "groupValue": "VOMITING"
            }
          ],
          "rawValue": "14.243932726",
          "formattedValue": "14.2"
        },
        {
          "operationId": "Mth_03_1_03_95%_CI_High",
          "resultGroups": [
            {
              "groupingId": "AnlsGrouping_45_Trt01An",
              "groupId": "AnlsGrouping_45_Trt01An_02"
            },
            {
              "groupingId": "AnlsGrouping_46_Aedecod",
              "groupValue": "HYPERHIDROSIS"
            }
          ],
          "rawValue": "15.801341476",
          "formattedValue": "15.8"
        },
        {
          "operationId": "Mth_03_1_03_95%_CI_High",
          "resultGroups": [
            {
              "groupingId": "AnlsGrouping_45_Trt01An",
              "groupId": "AnlsGrouping_45_Trt01An_02"
            },
            {
              "groupingId": "AnlsGrouping_46_Aedecod",
              "groupValue": "SINUS BRADYCARDIA"
            }
          ],
          "rawValue": "15.801341476",
          "formattedValue": "15.8"
        },
        {
          "operationId": "Mth_03_1_03_95%_CI_High",
          "resultGroups": [
            {
              "groupingId": "AnlsGrouping_45_Trt01An",
              "groupId": "AnlsGrouping_45_Trt01An_02"
            },
            {
              "groupingId": "AnlsGrouping_46_Aedecod",
              "groupValue": "RASH"
            }
          ],
          "rawValue": "16.028121828",
          "formattedValue": "16.0"
        },
        {
          "operationId": "Mth_03_1_03_95%_CI_High",
          "resultGroups": [
            {
              "groupingId": "AnlsGrouping_45_Trt01An",
              "groupId": "AnlsGrouping_45_Trt01An_02"
            },
            {
              "groupingId": "AnlsGrouping_46_Aedecod",
              "groupValue": "ERYTHEMA"
            }
          ],
          "rawValue": "16.466723379",
          "formattedValue": "16.5"
        },
        {
          "operationId": "Mth_03_1_03_95%_CI_High",
          "resultGroups": [
            {
              "groupingId": "AnlsGrouping_45_Trt01An",
              "groupId": "AnlsGrouping_45_Trt01An_02"
            },
            {
              "groupingId": "AnlsGrouping_46_Aedecod",
              "groupValue": "APPLICATION SITE IRRITATION"
            }
          ],
          "rawValue": "17.328663992",
          "formattedValue": "17.3"
        },
        {
          "operationId": "Mth_03_1_03_95%_CI_High",
          "resultGroups": [
            {
              "groupingId": "AnlsGrouping_45_Trt01An",
              "groupId": "AnlsGrouping_45_Trt01An_02"
            },
            {
              "groupingId": "AnlsGrouping_46_Aedecod",
              "groupValue": "DIZZINESS"
            }
          ],
          "rawValue": "21.769029059",
          "formattedValue": "21.8"
        },
        {
          "operationId": "Mth_03_1_03_95%_CI_High",
          "resultGroups": [
            {
              "groupingId": "AnlsGrouping_45_Trt01An",
              "groupId": "AnlsGrouping_45_Trt01An_02"
            },
            {
              "groupingId": "AnlsGrouping_46_Aedecod",
              "groupValue": "APPLICATION SITE ERYTHEMA"
            }
          ],
          "rawValue": "26.047584441",
          "formattedValue": "26.0"
        },
        {
          "operationId": "Mth_03_1_03_95%_CI_High",
          "resultGroups": [
            {
              "groupingId": "AnlsGrouping_45_Trt01An",
              "groupId": "AnlsGrouping_45_Trt01An_02"
            },
            {
              "groupingId": "AnlsGrouping_46_Aedecod",
              "groupValue": "APPLICATION SITE PRURITUS"
            }
          ],
          "rawValue": "30.048770644",
          "formattedValue": "30.0"
        },
        {
          "operationId": "Mth_03_1_03_95%_CI_High",
          "resultGroups": [
            {
              "groupingId": "AnlsGrouping_45_Trt01An",
              "groupId": "AnlsGrouping_45_Trt01An_02"
            },
            {
              "groupingId": "AnlsGrouping_46_Aedecod",
              "groupValue": "PRURITUS"
            }
          ],
          "rawValue": "33.287434463",
          "formattedValue": "33.3"
        }
      ]
    }
  ],
  "globalDisplaySections": [
    {
      "sectionType": "Header",
      "subSections": [
        {
          "id": "GlobalDisp_Header_01",
          "text": "CDISC - eTFL Portal"
        },
        {
          "id": "GlobalDisp_Header_02",
          "text": "Generated using TFL Designer (Community, v1.0)"
        },
        {
          "id": "GlobalDisp_Header_03",
          "text": "Page x of y"
        }
      ]
    }
  ],
  "outputs": [
    {
      "name": "Subjects With Common Adverse Events Occurring at ≥X% Frequency",
      "id": "Out_09",
      "displays": [
        {
          "order": 1,
          "display": {
            "name": "=B3",
            "id": "Disp_09",
            "version": 1,
            "displayTitle": "=F3",
            "displaySections": [
              {
                "sectionType": "Header",
                "orderedSubSections": [
                  {
                    "order": 1,
                    "subSectionId": "GlobalDisp_Header_01"
                  },
                  {
                    "order": 2,
                    "subSectionId": "GlobalDisp_Header_02"
                  },
                  {
                    "order": 3,
                    "subSectionId": "GlobalDisp_Header_03"
                  }
                ]
              },
              {
                "sectionType": "Title",
                "orderedSubSections": [
                  {
                    "order": 1,
                    "subSection": {
                      "id": "Disp_09_Title_01",
                      "text": "FDA-AE-T13"
                    }
                  },
                  {
                    "order": 2,
                    "subSection": {
                      "id": "Disp_09_Title_02",
                      "text": "Subjects With Common Adverse Events Occurring at ≥X% Frequency"
                    }
                  },
                  {
                    "order": 3,
                    "subSection": {
                      "id": "Disp_09_Title_03",
                      "text": "Safety Population"
                    }
                  }
                ]
              },
              {
                "sectionType": "Footnote",
                "orderedSubSections": [
                  {
                    "order": 1,
                    "subSection": {
                      "id": "Disp_09_Footnote_01",
                      "text": "Source: ADAE; Program name: fda-ae-t13.sas;"
                    }
                  },
                  {
                    "order": 2,
                    "subSection": {
                      "id": "Disp_09_Footnote_02",
                      "text": "Abbreviations: CI, confidence interval; MedDRA, Medical Dictionary for Regulatory Activities; N, number of subjects in treatment arm; n, number of subjects with adverse event; PT, preferred term"
                    }
                  },
                  {
                    "order": 3,
                    "subSection": {
                      "id": "Disp_09_Footnote_03",
                      "text": "Note: Subjects are counted once within each preferred term."
                    }
                  },
                  {
                    "order": 4,
                    "subSection": {
                      "id": "Disp_09_Footnote_04",
                      "text": "[1] Treatment-emergent adverse event is defined as AE with onset after the first dose of study drug. Table display is ordered by the highest frequency in Xanomeline High Dose group. All adverse events were coded using MedDRA version xx.x."
                    }
                  },
                  {
                    "order": 5,
                    "subSection": {
                      "id": "Disp_09_Footnote_05",
                      "text": "[2] Difference is shown between Xanomeline Low Dose vs. Placebo."
                    }
                  },
                  {
                    "order": 6,
                    "subSection": {
                      "id": "Disp_09_Footnote_06",
                      "text": "[3] Difference is shown between Xanomeline High Dose vs. Placebo."
                    }
                  }
                ]
              },
              {
                "sectionType": "Rowlabel Header",
                "orderedSubSections": [
                  {
                    "order": 1,
                    "subSection": {
                      "id": "Disp_09_RowlabelHeader_01",
                      "text": "Preferred Term [1]"
                    }
                  }
                ]
              }
            ]
          }
        }
      ],
      "version": 1,
      "categoryIds": [
        "ANSET_01",
        "ANSET_01_ANINT_05"
      ]
    }
  ],
  "@type": "ReportingEvent"
}
