{
  "name": "Summary of Observed and Change from Baseline by Scheduled Visits - Hematology Laboratory Test",
  "id": "ARS-LB-T02",
  "mainListOfContents": {
    "name": "List of Planned Analyses",
    "label": "LOPA",
    "contentsList": {
      "listItems": [
        {
          "name": "Summary of Observed and Change from Baseline by Scheduled Visits - Hematology Laboratory Test",
          "level": 1,
          "order": 1,
          "outputId": "Out_11",
          "sublist": {
            "listItems": [
              {
                "name": "    Summary of Subjects by Treatment",
                "level": 2,
                "order": 1,
                "analysisId": "An_90"
              },
              {
                "name": "    Parameter (Units)",
                "level": 2,
                "order": 2,
                "sublist": {
                  "listItems": [
                    {
                      "name": "        Baseline",
                      "level": 3,
                      "order": 1,
                      "sublist": {
                        "listItems": [
                          {
                            "name": "            Baseline Value",
                            "level": 4,
                            "order": 1,
                            "sublist": {
                              "listItems": [
                                {
                                  "name": "                Summary of Baseline Value by Treatment and Parameter (Unit)",
                                  "level": 5,
                                  "order": 1,
                                  "analysisId": "An_93"
                                }
                              ]
                            }
                          }
                        ]
                      }
                    },
                    {
                      "name": "        <Visit n>",
                      "level": 3,
                      "order": 2,
                      "sublist": {
                        "listItems": [
                          {
                            "name": "            Change Value",
                            "level": 4,
                            "order": 1,
                            "sublist": {
                              "listItems": [
                                {
                                  "name": "                Summary of Analysis Value by Treatment, Parameter (Unit) and Visit",
                                  "level": 5,
                                  "order": 1,
                                  "analysisId": "An_95"
                                }
                              ]
                            }
                          }
                        ]
                      }
                    },
                    {
                      "name": "        <Visit n Change from Baseline>",
                      "level": 3,
                      "order": 3,
                      "sublist": {
                        "listItems": [
                          {
                            "name": "            Change Value",
                            "level": 4,
                            "order": 1,
                            "sublist": {
                              "listItems": [
                                {
                                  "name": "                Summary of Change from Baseline by Treatment, Parameter (Unit) and Visit",
                                  "level": 5,
                                  "order": 1,
                                  "analysisId": "An_97"
                                }
                              ]
                            }
                          }
                        ]
                      }
                    }
                  ]
                }
              }
            ]
          }
        }
      ]
    }
  },
  "version": 1,
  "otherListsOfContents": [
    {
      "name": "List of Planned Outputs",
      "label": "LOPO",
      "contentsList": {
        "listItems": [
          {
            "name": "Summary of Observed and Change from Baseline by Scheduled Visits - Hematology Laboratory Test",
            "level": 1,
            "order": 1,
            "outputId": "Out_11"
          }
        ]
      }
    }
  ],
  "terminologyExtensions": [
    {
      "id": "TermEx01",
      "sponsorTerms": [
        {
          "id": "TermEx01_01",
          "submissionValue": "POPULATION SUMMARY",
          "description": "Summary statistics describing the study population(s)."
        }
      ],
      "enumeration": "AnalysisPurposeEnum"
    }
  ],
  "analysisOutputCategorizations": [
    {
      "id": "ANSET",
      "categories": [
        {
          "id": "ANSET_01",
          "label": "Safety",
          "subCategorizations": [
            {
              "id": "ANSET_01_ANINT",
              "categories": [
                {
                  "id": "ANSET_01_ANINT_01",
                  "label": "Laboratory Test Results"
                }
              ],
              "label": "Safety Analysis Of Interest"
            }
          ]
        }
      ],
      "label": "Analysis Sets"
    }
  ],
  "analysisSets": [
    {
      "name": "Safety Population",
      "description": "All patients randomized and known to have taken at least one dose of randomized drug.",
      "id": "AnalysisSet_01",
      "level": 1,
      "order": 1,
      "condition": {
        "dataset": "ADSL",
        "variable": "SAFFL",
        "comparator": "EQ",
        "value": [
          "Y"
        ]
      }
    }
  ],
  "dataSubsets": [
    {
      "name": "Baseline Hematology Parameter",
      "id": "Dss_32",
      "level": 1,
      "order": 1,
      "compoundExpression": {
        "logicalOperator": "AND",
        "whereClauses": [
          {
            "level": 2,
            "order": 1,
            "condition": {
              "dataset": "ADLB",
              "variable": "PARCAT1",
              "comparator": "EQ",
              "value": [
                "HEM"
              ]
            }
          },
          {
            "level": 2,
            "order": 2,
            "condition": {
              "dataset": "ADLB",
              "variable": "PARAM",
              "comparator": "NE"
            }
          },
          {
            "level": 2,
            "order": 3,
            "condition": {
              "dataset": "ADLB",
              "variable": "AVISIT",
              "comparator": "EQ",
              "value": [
                "Baseline"
              ]
            }
          }
        ]
      }
    },
    {
      "name": "Non-baseline Hematology Parameter",
      "id": "Dss_33",
      "level": 1,
      "order": 1,
      "compoundExpression": {
        "logicalOperator": "AND",
        "whereClauses": [
          {
            "level": 2,
            "order": 1,
            "condition": {
              "dataset": "ADLB",
              "variable": "PARCAT1",
              "comparator": "EQ",
              "value": [
                "HEM"
              ]
            }
          },
          {
            "level": 2,
            "order": 2,
            "condition": {
              "dataset": "ADLB",
              "variable": "PARAM",
              "comparator": "NE"
            }
          },
          {
            "level": 2,
            "order": 3,
            "condition": {
              "dataset": "ADLB",
              "variable": "AVISIT",
              "comparator": "NE",
              "value": [
                "Baseline"
              ]
            }
          }
        ]
      }
    },
    {
      "name": "Non-baseline Hematology Parameter with Change",
      "id": "Dss_34",
      "level": 1,
      "order": 1,
      "compoundExpression": {
        "logicalOperator": "AND",
        "whereClauses": [
          {
            "level": 2,
            "order": 1,
            "condition": {
              "dataset": "ADLB",
              "variable": "PARCAT1",
              "comparator": "EQ",
              "value": [
                "HEM"
              ]
            }
          },
          {
            "level": 2,
            "order": 2,
            "condition": {
              "dataset": "ADLB",
              "variable": "PARAM",
              "comparator": "NE"
            }
          },
          {
            "level": 2,
            "order": 3,
            "condition": {
              "dataset": "ADLB",
              "variable": "AVISIT",
              "comparator": "NE",
              "value": [
                "Baseline"
              ]
            }
          },
          {
            "level": 2,
            "order": 4,
            "condition": {
              "dataset": "ADLB",
              "variable": "CHG",
              "comparator": "NE"
            }
          }
        ]
      }
    }
  ],
  "analysisGroupings": [
    {
      "name": "Treatment",
      "id": "AnlsGrouping_52_Trt01An",
      "dataDriven": false,
      "groupingDataset": "ADSL",
      "groupingVariable": "TRT01AN",
      "groups": [
        {
          "name": "Xanomeline Low Dose \n(N=XX)",
          "id": "AnlsGrouping_52_Trt01An_01",
          "level": 1,
          "order": 1,
          "condition": {
            "dataset": "ADSL",
            "variable": "TRT01AN",
            "comparator": "EQ",
            "value": [
              "1"
            ]
          }
        },
        {
          "name": "Xanomeline High Dose \n(N=XX)",
          "id": "AnlsGrouping_52_Trt01An_02",
          "level": 1,
          "order": 2,
          "condition": {
            "dataset": "ADSL",
            "variable": "TRT01AN",
            "comparator": "EQ",
            "value": [
              "2"
            ]
          }
        },
        {
          "name": "Placebo \n(N=XX)",
          "id": "AnlsGrouping_52_Trt01An_03",
          "level": 1,
          "order": 3,
          "condition": {
            "dataset": "ADSL",
            "variable": "TRT01AN",
            "comparator": "EQ",
            "value": [
              "3"
            ]
          }
        }
      ]
    },
    {
      "name": "Parameter",
      "label": "Parameter (Units)",
      "id": "AnlsGrouping_53_Param",
      "dataDriven": true,
      "groupingDataset": "ADLB",
      "groupingVariable": "PARAM"
    },
    {
      "name": "Visit",
      "label": "<Visit n>",
      "id": "AnlsGrouping_55_Aval",
      "dataDriven": true,
      "groupingDataset": "ADLB",
      "groupingVariable": "AVISIT"
    },
    {
      "name": "Visit",
      "label": "<Visit n Change from Baseline>",
      "id": "AnlsGrouping_56_Chg",
      "dataDriven": true,
      "groupingDataset": "ADLB",
      "groupingVariable": "AVISIT"
    }
  ],
  "methods": [
    {
      "name": "bigN",
      "description": "Grouped summary of categorical variable",
      "label": "Descriptive summary statistics across groups for a categorical variable, based on subject occurrence",
      "id": "Mth_00_1",
      "operations": [
        {
          "name": "n",
          "label": "n",
          "id": "Mth_00_1_01_n",
          "order": 1,
          "resultPattern": "(N=XX)"
        }
      ],
      "codeTemplate": {
        "context": "R (siera)",
        "code": "in_data = df2_analysisidhere |>\n    dplyr::select(distinctlisthere) |>\n    unique() |>\n    dplyr::mutate(dummy = 'dummyvar')\n\ndf3_analysisidhere <-\n  cards::ard_tabulate(\n    data = in_data\n   ,by = c(byvarshere)\n   ,variables = dummy\n  ) |>\ndplyr::filter(stat_name == 'n') |>\n dplyr::mutate(operationid = 'opid1here')",
        "parameters": [
          {
            "name": "distinctlisthere",
            "label": "distinct list",
            "description": "grouping+analysis vars",
            "valueSource": "distinct_list"
          },
          {
            "name": "byvarshere",
            "label": "by vars",
            "description": "by-variable character vector",
            "valueSource": "by_listc"
          },
          {
            "name": "opid1here",
            "label": "op 1 id",
            "description": "Operation 1 ID",
            "valueSource": "operation_1"
          }
        ]
      }
    },
    {
      "name": "Summary by group of a continuous variable",
      "description": "Descriptive summary statistics across groups for a continuous variable",
      "label": "Grouped summary of continuous variable",
      "id": "Mth_06",
      "operations": [
        {
          "name": "n",
          "label": "n",
          "id": "Mth_06_01_n",
          "order": 1,
          "resultPattern": "XX"
        },
        {
          "name": "Mean",
          "label": "Mean",
          "id": "Mth_06_02_Mean",
          "order": 2,
          "resultPattern": "XX.X"
        },
        {
          "name": "SD",
          "label": "SD",
          "id": "Mth_06_03_SD",
          "order": 3,
          "resultPattern": "(XX.XX)"
        },
        {
          "name": "Median",
          "label": "Median",
          "id": "Mth_06_04_Median",
          "order": 4,
          "resultPattern": "XX.X"
        },
        {
          "name": "Q1",
          "label": "Q1",
          "id": "Mth_06_05_Q1",
          "order": 5,
          "resultPattern": "XX.X"
        },
        {
          "name": "Q3",
          "label": "Q3",
          "id": "Mth_06_06_Q3",
          "order": 6,
          "resultPattern": "XX.X"
        },
        {
          "name": "Min",
          "label": "Min",
          "id": "Mth_06_07_Min",
          "order": 7,
          "resultPattern": "XX.X"
        },
        {
          "name": "Max",
          "label": "Max",
          "id": "Mth_06_08_Max",
          "order": 8,
          "resultPattern": "XX.X"
        }
      ],
      "codeTemplate": {
        "context": "R (siera)",
        "code": "in_data = df2_analysisidhere |>\n    dplyr::select(distinctlisthere)\n\ndf3_analysisidhere <-\n  cards::ard_summary(\n    data = in_data\n   ,by = c(byvarshere)\n   ,variables = c('anavarhere')\n   ,statistic = list('anavarhere' =\n       cards::continuous_summary_fns(\n           c(\"N\",\"mean\",\"sd\",\"median\",\"p25\",\"p75\",\"min\",\"max\")))\n  ) |>\n dplyr::mutate(operationid = dplyr::case_when(\n    stat_name == 'N'      ~ 'opid1here',\n    stat_name == 'mean'   ~ 'opid2here',\n    stat_name == 'sd'     ~ 'opid3here',\n    stat_name == 'median' ~ 'opid4here',\n    stat_name == 'p25'    ~ 'opid5here',\n    stat_name == 'p75'    ~ 'opid6here',\n    stat_name == 'min'    ~ 'opid7here',\n    stat_name == 'max'    ~ 'opid8here'\n  ))",
        "parameters": [
          {
            "name": "distinctlisthere",
            "label": "distinct list",
            "description": "grouping+analysis vars",
            "valueSource": "distinct_list"
          },
          {
            "name": "byvarshere",
            "label": "by vars",
            "description": "by-variable character vector",
            "valueSource": "by_listc"
          },
          {
            "name": "anavarhere",
            "label": "analysis var",
            "description": "Analysis variable name",
            "valueSource": "ana_var"
          },
          {
            "name": "opid1here",
            "label": "N id",
            "description": "Operation ID for N",
            "valueSource": "operation_1"
          },
          {
            "name": "opid2here",
            "label": "mean id",
            "description": "Operation ID for Mean",
            "valueSource": "operation_2"
          },
          {
            "name": "opid3here",
            "label": "SD id",
            "description": "Operation ID for SD",
            "valueSource": "operation_3"
          },
          {
            "name": "opid4here",
            "label": "median id",
            "description": "Operation ID for Median",
            "valueSource": "operation_4"
          },
          {
            "name": "opid5here",
            "label": "Q1 id",
            "description": "Operation ID for Q1 (p25)",
            "valueSource": "operation_5"
          },
          {
            "name": "opid6here",
            "label": "Q3 id",
            "description": "Operation ID for Q3 (p75)",
            "valueSource": "operation_6"
          },
          {
            "name": "opid7here",
            "label": "min id",
            "description": "Operation ID for Min",
            "valueSource": "operation_7"
          },
          {
            "name": "opid8here",
            "label": "max id",
            "description": "Operation ID for Max",
            "valueSource": "operation_8"
          }
        ]
      }
    }
  ],
  "analyses": [
    {
      "name": "Summary of Subjects by Treatment",
      "id": "An_90",
      "reason": {
        "controlledTerm": "SPECIFIED IN SAP"
      },
      "purpose": {
        "sponsorTermId": "TermEx01_01"
      },
      "methodId": "Mth_00_1",
      "version": 1,
      "categoryIds": [
        "ANSET_01",
        "ANSET_01_ANINT_01"
      ],
      "dataset": "ADLB",
      "variable": "USUBJID",
      "analysisSetId": "AnalysisSet_01",
      "orderedGroupings": [
        {
          "order": 1,
          "groupingId": "AnlsGrouping_52_Trt01An",
          "resultsByGroup": true
        }
      ],
      "results": [
        {
          "operationId": "Mth_00_1_01_n",
          "resultGroups": [
            {
              "groupingId": "AnlsGrouping_52_Trt01An",
              "groupId": "AnlsGrouping_52_Trt01An_01"
            }
          ],
          "rawValue": "84",
          "formattedValue": "(N=84)"
        },
        {
          "operationId": "Mth_00_1_01_n",
          "resultGroups": [
            {
              "groupingId": "AnlsGrouping_52_Trt01An",
              "groupId": "AnlsGrouping_52_Trt01An_02"
            }
          ],
          "rawValue": "84",
          "formattedValue": "(N=84)"
        },
        {
          "operationId": "Mth_00_1_01_n",
          "resultGroups": [
            {
              "groupingId": "AnlsGrouping_52_Trt01An",
              "groupId": "AnlsGrouping_52_Trt01An_03"
            }
          ],
          "rawValue": "86",
          "formattedValue": "(N=86)"
        }
      ]
    },
    {
      "name": "Summary of Baseline Value by Treatment and Parameter (Unit)",
      "id": "An_93",
      "reason": {
        "controlledTerm": "SPECIFIED IN SAP"
      },
      "purpose": {
        "controlledTerm": "PRIMARY OUTCOME MEASURE"
      },
      "methodId": "Mth_06",
      "version": 1,
      "categoryIds": [
        "ANSET_01",
        "ANSET_01_ANINT_01"
      ],
      "dataset": "ADLB",
      "variable": "BASE",
      "analysisSetId": "AnalysisSet_01",
      "dataSubsetId": "Dss_32",
      "orderedGroupings": [
        {
          "order": 1,
          "groupingId": "AnlsGrouping_52_Trt01An",
          "resultsByGroup": true
        },
        {
          "order": 2,
          "groupingId": "AnlsGrouping_53_Param",
          "resultsByGroup": true
        }
      ],
      "results": [
        {
          "operationId": "Mth_06_01_n",
          "resultGroups": [
            {
              "groupingId": "AnlsGrouping_52_Trt01An",
              "groupId": "AnlsGrouping_52_Trt01An_01"
            },
            {
              "groupingId": "AnlsGrouping_53_Param",
              "groupValue": "Anisocytes"
            }
          ],
          "rawValue": "3",
          "formattedValue": "3"
        },
        {
          "operationId": "Mth_06_01_n",
          "resultGroups": [
            {
              "groupingId": "AnlsGrouping_52_Trt01An",
              "groupId": "AnlsGrouping_52_Trt01An_01"
            },
            {
              "groupingId": "AnlsGrouping_53_Param",
              "groupValue": "Basophils (GI/L)"
            }
          ],
          "rawValue": "81",
          "formattedValue": "81"
        },
        {
          "operationId": "Mth_06_01_n",
          "resultGroups": [
            {
              "groupingId": "AnlsGrouping_52_Trt01An",
              "groupId": "AnlsGrouping_52_Trt01An_01"
            },
            {
              "groupingId": "AnlsGrouping_53_Param",
              "groupValue": "Eosinophils (GI/L)"
            }
          ],
          "rawValue": "81",
          "formattedValue": "81"
        },
        {
          "operationId": "Mth_06_01_n",
          "resultGroups": [
            {
              "groupingId": "AnlsGrouping_52_Trt01An",
              "groupId": "AnlsGrouping_52_Trt01An_01"
            },
            {
              "groupingId": "AnlsGrouping_53_Param",
              "groupValue": "Ery. Mean Corpuscular HGB Concentration (mmol/L)"
            }
          ],
          "rawValue": "80",
          "formattedValue": "80"
        },
        {
          "operationId": "Mth_06_01_n",
          "resultGroups": [
            {
              "groupingId": "AnlsGrouping_52_Trt01An",
              "groupId": "AnlsGrouping_52_Trt01An_01"
            },
            {
              "groupingId": "AnlsGrouping_53_Param",
              "groupValue": "Ery. Mean Corpuscular Hemoglobin (fmol(Fe))"
            }
          ],
          "rawValue": "81",
          "formattedValue": "81"
        },
        {
          "operationId": "Mth_06_01_n",
          "resultGroups": [
            {
              "groupingId": "AnlsGrouping_52_Trt01An",
              "groupId": "AnlsGrouping_52_Trt01An_01"
            },
            {
              "groupingId": "AnlsGrouping_53_Param",
              "groupValue": "Ery. Mean Corpuscular Volume (fL)"
            }
          ],
          "rawValue": "80",
          "formattedValue": "80"
        },
        {
          "operationId": "Mth_06_01_n",
          "resultGroups": [
            {
              "groupingId": "AnlsGrouping_52_Trt01An",
              "groupId": "AnlsGrouping_52_Trt01An_01"
            },
            {
              "groupingId": "AnlsGrouping_53_Param",
              "groupValue": "Erythrocytes (TI/L)"
            }
          ],
          "rawValue": "81",
          "formattedValue": "81"
        },
        {
          "operationId": "Mth_06_01_n",
          "resultGroups": [
            {
              "groupingId": "AnlsGrouping_52_Trt01An",
              "groupId": "AnlsGrouping_52_Trt01An_01"
            },
            {
              "groupingId": "AnlsGrouping_53_Param",
              "groupValue": "Hematocrit"
            }
          ],
          "rawValue": "80",
          "formattedValue": "80"
        },
        {
          "operationId": "Mth_06_01_n",
          "resultGroups": [
            {
              "groupingId": "AnlsGrouping_52_Trt01An",
              "groupId": "AnlsGrouping_52_Trt01An_01"
            },
            {
              "groupingId": "AnlsGrouping_53_Param",
              "groupValue": "Hemoglobin (mmol/L)"
            }
          ],
          "rawValue": "81",
          "formattedValue": "81"
        },
        {
          "operationId": "Mth_06_01_n",
          "resultGroups": [
            {
              "groupingId": "AnlsGrouping_52_Trt01An",
              "groupId": "AnlsGrouping_52_Trt01An_01"
            },
            {
              "groupingId": "AnlsGrouping_53_Param",
              "groupValue": "Leukocytes (GI/L)"
            }
          ],
          "rawValue": "81",
          "formattedValue": "81"
        },
        {
          "operationId": "Mth_06_01_n",
          "resultGroups": [
            {
              "groupingId": "AnlsGrouping_52_Trt01An",
              "groupId": "AnlsGrouping_52_Trt01An_01"
            },
            {
              "groupingId": "AnlsGrouping_53_Param",
              "groupValue": "Lymphocytes (GI/L)"
            }
          ],
          "rawValue": "81",
          "formattedValue": "81"
        },
        {
          "operationId": "Mth_06_01_n",
          "resultGroups": [
            {
              "groupingId": "AnlsGrouping_52_Trt01An",
              "groupId": "AnlsGrouping_52_Trt01An_01"
            },
            {
              "groupingId": "AnlsGrouping_53_Param",
              "groupValue": "Macrocytes"
            }
          ],
          "rawValue": "4",
          "formattedValue": "4"
        },
        {
          "operationId": "Mth_06_01_n",
          "resultGroups": [
            {
              "groupingId": "AnlsGrouping_52_Trt01An",
              "groupId": "AnlsGrouping_52_Trt01An_01"
            },
            {
              "groupingId": "AnlsGrouping_53_Param",
              "groupValue": "Monocytes (GI/L)"
            }
          ],
          "rawValue": "81",
          "formattedValue": "81"
        },
        {
          "operationId": "Mth_06_01_n",
          "resultGroups": [
            {
              "groupingId": "AnlsGrouping_52_Trt01An",
              "groupId": "AnlsGrouping_52_Trt01An_01"
            },
            {
              "groupingId": "AnlsGrouping_53_Param",
              "groupValue": "Platelet (GI/L)"
            }
          ],
          "rawValue": "79",
          "formattedValue": "79"
        },
        {
          "operationId": "Mth_06_01_n",
          "resultGroups": [
            {
              "groupingId": "AnlsGrouping_52_Trt01An",
              "groupId": "AnlsGrouping_52_Trt01An_01"
            },
            {
              "groupingId": "AnlsGrouping_53_Param",
              "groupValue": "Polychromasia"
            }
          ],
          "rawValue": "1",
          "formattedValue": "1"
        },
        {
          "operationId": "Mth_06_01_n",
          "resultGroups": [
            {
              "groupingId": "AnlsGrouping_52_Trt01An",
              "groupId": "AnlsGrouping_52_Trt01An_02"
            },
            {
              "groupingId": "AnlsGrouping_53_Param",
              "groupValue": "Anisocytes"
            }
          ],
          "rawValue": "7",
          "formattedValue": "7"
        },
        {
          "operationId": "Mth_06_01_n",
          "resultGroups": [
            {
              "groupingId": "AnlsGrouping_52_Trt01An",
              "groupId": "AnlsGrouping_52_Trt01An_02"
            },
            {
              "groupingId": "AnlsGrouping_53_Param",
              "groupValue": "Basophils (GI/L)"
            }
          ],
          "rawValue": "81",
          "formattedValue": "81"
        },
        {
          "operationId": "Mth_06_01_n",
          "resultGroups": [
            {
              "groupingId": "AnlsGrouping_52_Trt01An",
              "groupId": "AnlsGrouping_52_Trt01An_02"
            },
            {
              "groupingId": "AnlsGrouping_53_Param",
              "groupValue": "Eosinophils (GI/L)"
            }
          ],
          "rawValue": "81",
          "formattedValue": "81"
        },
        {
          "operationId": "Mth_06_01_n",
          "resultGroups": [
            {
              "groupingId": "AnlsGrouping_52_Trt01An",
              "groupId": "AnlsGrouping_52_Trt01An_02"
            },
            {
              "groupingId": "AnlsGrouping_53_Param",
              "groupValue": "Ery. Mean Corpuscular HGB Concentration (mmol/L)"
            }
          ],
          "rawValue": "80",
          "formattedValue": "80"
        },
        {
          "operationId": "Mth_06_01_n",
          "resultGroups": [
            {
              "groupingId": "AnlsGrouping_52_Trt01An",
              "groupId": "AnlsGrouping_52_Trt01An_02"
            },
            {
              "groupingId": "AnlsGrouping_53_Param",
              "groupValue": "Ery. Mean Corpuscular Hemoglobin (fmol(Fe))"
            }
          ],
          "rawValue": "81",
          "formattedValue": "81"
        },
        {
          "operationId": "Mth_06_01_n",
          "resultGroups": [
            {
              "groupingId": "AnlsGrouping_52_Trt01An",
              "groupId": "AnlsGrouping_52_Trt01An_02"
            },
            {
              "groupingId": "AnlsGrouping_53_Param",
              "groupValue": "Ery. Mean Corpuscular Volume (fL)"
            }
          ],
          "rawValue": "80",
          "formattedValue": "80"
        },
        {
          "operationId": "Mth_06_01_n",
          "resultGroups": [
            {
              "groupingId": "AnlsGrouping_52_Trt01An",
              "groupId": "AnlsGrouping_52_Trt01An_02"
            },
            {
              "groupingId": "AnlsGrouping_53_Param",
              "groupValue": "Erythrocytes (TI/L)"
            }
          ],
          "rawValue": "81",
          "formattedValue": "81"
        },
        {
          "operationId": "Mth_06_01_n",
          "resultGroups": [
            {
              "groupingId": "AnlsGrouping_52_Trt01An",
              "groupId": "AnlsGrouping_52_Trt01An_02"
            },
            {
              "groupingId": "AnlsGrouping_53_Param",
              "groupValue": "Hematocrit"
            }
          ],
          "rawValue": "80",
          "formattedValue": "80"
        },
        {
          "operationId": "Mth_06_01_n",
          "resultGroups": [
            {
              "groupingId": "AnlsGrouping_52_Trt01An",
              "groupId": "AnlsGrouping_52_Trt01An_02"
            },
            {
              "groupingId": "AnlsGrouping_53_Param",
              "groupValue": "Hemoglobin (mmol/L)"
            }
          ],
          "rawValue": "81",
          "formattedValue": "81"
        },
        {
          "operationId": "Mth_06_01_n",
          "resultGroups": [
            {
              "groupingId": "AnlsGrouping_52_Trt01An",
              "groupId": "AnlsGrouping_52_Trt01An_02"
            },
            {
              "groupingId": "AnlsGrouping_53_Param",
              "groupValue": "Leukocytes (GI/L)"
            }
          ],
          "rawValue": "81",
          "formattedValue": "81"
        },
        {
          "operationId": "Mth_06_01_n",
          "resultGroups": [
            {
              "groupingId": "AnlsGrouping_52_Trt01An",
              "groupId": "AnlsGrouping_52_Trt01An_02"
            },
            {
              "groupingId": "AnlsGrouping_53_Param",
              "groupValue": "Lymphocytes (GI/L)"
            }
          ],
          "rawValue": "81",
          "formattedValue": "81"
        },
        {
          "operationId": "Mth_06_01_n",
          "resultGroups": [
            {
              "groupingId": "AnlsGrouping_52_Trt01An",
              "groupId": "AnlsGrouping_52_Trt01An_02"
            },
            {
              "groupingId": "AnlsGrouping_53_Param",
              "groupValue": "Monocytes (GI/L)"
            }
          ],
          "rawValue": "81",
          "formattedValue": "81"
        },
        {
          "operationId": "Mth_06_01_n",
          "resultGroups": [
            {
              "groupingId": "AnlsGrouping_52_Trt01An",
              "groupId": "AnlsGrouping_52_Trt01An_02"
            },
            {
              "groupingId": "AnlsGrouping_53_Param",
              "groupValue": "Platelet (GI/L)"
            }
          ],
          "rawValue": "81",
          "formattedValue": "81"
        },
        {
          "operationId": "Mth_06_01_n",
          "resultGroups": [
            {
              "groupingId": "AnlsGrouping_52_Trt01An",
              "groupId": "AnlsGrouping_52_Trt01An_02"
            },
            {
              "groupingId": "AnlsGrouping_53_Param",
              "groupValue": "Polychromasia"
            }
          ],
          "rawValue": "1",
          "formattedValue": "1"
        },
        {
          "operationId": "Mth_06_01_n",
          "resultGroups": [
            {
              "groupingId": "AnlsGrouping_52_Trt01An",
              "groupId": "AnlsGrouping_52_Trt01An_03"
            },
            {
              "groupingId": "AnlsGrouping_53_Param",
              "groupValue": "Anisocytes"
            }
          ],
          "rawValue": "7",
          "formattedValue": "7"
        },
        {
          "operationId": "Mth_06_01_n",
          "resultGroups": [
            {
              "groupingId": "AnlsGrouping_52_Trt01An",
              "groupId": "AnlsGrouping_52_Trt01An_03"
            },
            {
              "groupingId": "AnlsGrouping_53_Param",
              "groupValue": "Basophils (GI/L)"
            }
          ],
          "rawValue": "85",
          "formattedValue": "85"
        },
        {
          "operationId": "Mth_06_01_n",
          "resultGroups": [
            {
              "groupingId": "AnlsGrouping_52_Trt01An",
              "groupId": "AnlsGrouping_52_Trt01An_03"
            },
            {
              "groupingId": "AnlsGrouping_53_Param",
              "groupValue": "Eosinophils (GI/L)"
            }
          ],
          "rawValue": "85",
          "formattedValue": "85"
        },
        {
          "operationId": "Mth_06_01_n",
          "resultGroups": [
            {
              "groupingId": "AnlsGrouping_52_Trt01An",
              "groupId": "AnlsGrouping_52_Trt01An_03"
            },
            {
              "groupingId": "AnlsGrouping_53_Param",
              "groupValue": "Ery. Mean Corpuscular HGB Concentration (mmol/L)"
            }
          ],
          "rawValue": "85",
          "formattedValue": "85"
        },
        {
          "operationId": "Mth_06_01_n",
          "resultGroups": [
            {
              "groupingId": "AnlsGrouping_52_Trt01An",
              "groupId": "AnlsGrouping_52_Trt01An_03"
            },
            {
              "groupingId": "AnlsGrouping_53_Param",
              "groupValue": "Ery. Mean Corpuscular Hemoglobin (fmol(Fe))"
            }
          ],
          "rawValue": "85",
          "formattedValue": "85"
        },
        {
          "operationId": "Mth_06_01_n",
          "resultGroups": [
            {
              "groupingId": "AnlsGrouping_52_Trt01An",
              "groupId": "AnlsGrouping_52_Trt01An_03"
            },
            {
              "groupingId": "AnlsGrouping_53_Param",
              "groupValue": "Ery. Mean Corpuscular Volume (fL)"
            }
          ],
          "rawValue": "85",
          "formattedValue": "85"
        },
        {
          "operationId": "Mth_06_01_n",
          "resultGroups": [
            {
              "groupingId": "AnlsGrouping_52_Trt01An",
              "groupId": "AnlsGrouping_52_Trt01An_03"
            },
            {
              "groupingId": "AnlsGrouping_53_Param",
              "groupValue": "Erythrocytes (TI/L)"
            }
          ],
          "rawValue": "85",
          "formattedValue": "85"
        },
        {
          "operationId": "Mth_06_01_n",
          "resultGroups": [
            {
              "groupingId": "AnlsGrouping_52_Trt01An",
              "groupId": "AnlsGrouping_52_Trt01An_03"
            },
            {
              "groupingId": "AnlsGrouping_53_Param",
              "groupValue": "Hematocrit"
            }
          ],
          "rawValue": "85",
          "formattedValue": "85"
        },
        {
          "operationId": "Mth_06_01_n",
          "resultGroups": [
            {
              "groupingId": "AnlsGrouping_52_Trt01An",
              "groupId": "AnlsGrouping_52_Trt01An_03"
            },
            {
              "groupingId": "AnlsGrouping_53_Param",
              "groupValue": "Hemoglobin (mmol/L)"
            }
          ],
          "rawValue": "85",
          "formattedValue": "85"
        },
        {
          "operationId": "Mth_06_01_n",
          "resultGroups": [
            {
              "groupingId": "AnlsGrouping_52_Trt01An",
              "groupId": "AnlsGrouping_52_Trt01An_03"
            },
            {
              "groupingId": "AnlsGrouping_53_Param",
              "groupValue": "Leukocytes (GI/L)"
            }
          ],
          "rawValue": "85",
          "formattedValue": "85"
        },
        {
          "operationId": "Mth_06_01_n",
          "resultGroups": [
            {
              "groupingId": "AnlsGrouping_52_Trt01An",
              "groupId": "AnlsGrouping_52_Trt01An_03"
            },
            {
              "groupingId": "AnlsGrouping_53_Param",
              "groupValue": "Lymphocytes (GI/L)"
            }
          ],
          "rawValue": "85",
          "formattedValue": "85"
        },
        {
          "operationId": "Mth_06_01_n",
          "resultGroups": [
            {
              "groupingId": "AnlsGrouping_52_Trt01An",
              "groupId": "AnlsGrouping_52_Trt01An_03"
            },
            {
              "groupingId": "AnlsGrouping_53_Param",
              "groupValue": "Macrocytes"
            }
          ],
          "rawValue": "3",
          "formattedValue": "3"
        },
        {
          "operationId": "Mth_06_01_n",
          "resultGroups": [
            {
              "groupingId": "AnlsGrouping_52_Trt01An",
              "groupId": "AnlsGrouping_52_Trt01An_03"
            },
            {
              "groupingId": "AnlsGrouping_53_Param",
              "groupValue": "Monocytes (GI/L)"
            }
          ],
          "rawValue": "85",
          "formattedValue": "85"
        },
        {
          "operationId": "Mth_06_01_n",
          "resultGroups": [
            {
              "groupingId": "AnlsGrouping_52_Trt01An",
              "groupId": "AnlsGrouping_52_Trt01An_03"
            },
            {
              "groupingId": "AnlsGrouping_53_Param",
              "groupValue": "Platelet (GI/L)"
            }
          ],
          "rawValue": "84",
          "formattedValue": "84"
        },
        {
          "operationId": "Mth_06_01_n",
          "resultGroups": [
            {
              "groupingId": "AnlsGrouping_52_Trt01An",
              "groupId": "AnlsGrouping_52_Trt01An_03"
            },
            {
              "groupingId": "AnlsGrouping_53_Param",
              "groupValue": "Polychromasia"
            }
          ],
          "rawValue": "1",
          "formattedValue": "1"
        },
        {
          "operationId": "Mth_06_02_Mean",
          "resultGroups": [
            {
              "groupingId": "AnlsGrouping_52_Trt01An",
              "groupId": "AnlsGrouping_52_Trt01An_01"
            },
            {
              "groupingId": "AnlsGrouping_53_Param",
              "groupValue": "Anisocytes"
            }
          ],
          "rawValue": "1",
          "formattedValue": "1.0"
        },
        {
          "operationId": "Mth_06_02_Mean",
          "resultGroups": [
            {
              "groupingId": "AnlsGrouping_52_Trt01An",
              "groupId": "AnlsGrouping_52_Trt01An_01"
            },
            {
              "groupingId": "AnlsGrouping_53_Param",
              "groupValue": "Basophils (GI/L)"
            }
          ],
          "rawValue": "0.0540740741",
          "formattedValue": "0.054"
        },
        {
          "operationId": "Mth_06_02_Mean",
          "resultGroups": [
            {
              "groupingId": "AnlsGrouping_52_Trt01An",
              "groupId": "AnlsGrouping_52_Trt01An_01"
            },
            {
              "groupingId": "AnlsGrouping_53_Param",
              "groupValue": "Eosinophils (GI/L)"
            }
          ],
          "rawValue": "0.1464197531",
          "formattedValue": "0.146"
        },
        {
          "operationId": "Mth_06_02_Mean",
          "resultGroups": [
            {
              "groupingId": "AnlsGrouping_52_Trt01An",
              "groupId": "AnlsGrouping_52_Trt01An_01"
            },
            {
              "groupingId": "AnlsGrouping_53_Param",
              "groupValue": "Ery. Mean Corpuscular HGB Concentration (mmol/L)"
            }
          ],
          "rawValue": "20.23156",
          "formattedValue": "20.23156"
        },
        {
          "operationId": "Mth_06_02_Mean",
          "resultGroups": [
            {
              "groupingId": "AnlsGrouping_52_Trt01An",
              "groupId": "AnlsGrouping_52_Trt01An_01"
            },
            {
              "groupingId": "AnlsGrouping_53_Param",
              "groupValue": "Ery. Mean Corpuscular Hemoglobin (fmol(Fe))"
            }
          ],
          "rawValue": "1.9070041975",
          "formattedValue": "1.907004"
        },
        {
          "operationId": "Mth_06_02_Mean",
          "resultGroups": [
            {
              "groupingId": "AnlsGrouping_52_Trt01An",
              "groupId": "AnlsGrouping_52_Trt01An_01"
            },
            {
              "groupingId": "AnlsGrouping_53_Param",
              "groupValue": "Ery. Mean Corpuscular Volume (fL)"
            }
          ],
          "rawValue": "94.55",
          "formattedValue": "94.6"
        },
        {
          "operationId": "Mth_06_02_Mean",
          "resultGroups": [
            {
              "groupingId": "AnlsGrouping_52_Trt01An",
              "groupId": "AnlsGrouping_52_Trt01An_01"
            },
            {
              "groupingId": "AnlsGrouping_53_Param",
              "groupValue": "Erythrocytes (TI/L)"
            }
          ],
          "rawValue": "4.5469135802",
          "formattedValue": "4.55"
        },
        {
          "operationId": "Mth_06_02_Mean",
          "resultGroups": [
            {
              "groupingId": "AnlsGrouping_52_Trt01An",
              "groupId": "AnlsGrouping_52_Trt01An_01"
            },
            {
              "groupingId": "AnlsGrouping_53_Param",
              "groupValue": "Hematocrit"
            }
          ],
          "rawValue": "0.429",
          "formattedValue": "0.429"
        },
        {
          "operationId": "Mth_06_02_Mean",
          "resultGroups": [
            {
              "groupingId": "AnlsGrouping_52_Trt01An",
              "groupId": "AnlsGrouping_52_Trt01An_01"
            },
            {
              "groupingId": "AnlsGrouping_53_Param",
              "groupValue": "Hemoglobin (mmol/L)"
            }
          ],
          "rawValue": "8.6225091358",
          "formattedValue": "8.622509"
        },
        {
          "operationId": "Mth_06_02_Mean",
          "resultGroups": [
            {
              "groupingId": "AnlsGrouping_52_Trt01An",
              "groupId": "AnlsGrouping_52_Trt01An_01"
            },
            {
              "groupingId": "AnlsGrouping_53_Param",
              "groupValue": "Leukocytes (GI/L)"
            }
          ],
          "rawValue": "6.6186419753",
          "formattedValue": "6.619"
        },
        {
          "operationId": "Mth_06_02_Mean",
          "resultGroups": [
            {
              "groupingId": "AnlsGrouping_52_Trt01An",
              "groupId": "AnlsGrouping_52_Trt01An_01"
            },
            {
              "groupingId": "AnlsGrouping_53_Param",
              "groupValue": "Lymphocytes (GI/L)"
            }
          ],
          "rawValue": "1.7725925926",
          "formattedValue": "1.773"
        },
        {
          "operationId": "Mth_06_02_Mean",
          "resultGroups": [
            {
              "groupingId": "AnlsGrouping_52_Trt01An",
              "groupId": "AnlsGrouping_52_Trt01An_01"
            },
            {
              "groupingId": "AnlsGrouping_53_Param",
              "groupValue": "Macrocytes"
            }
          ],
          "rawValue": "1",
          "formattedValue": "1.0"
        },
        {
          "operationId": "Mth_06_02_Mean",
          "resultGroups": [
            {
              "groupingId": "AnlsGrouping_52_Trt01An",
              "groupId": "AnlsGrouping_52_Trt01An_01"
            },
            {
              "groupingId": "AnlsGrouping_53_Param",
              "groupValue": "Monocytes (GI/L)"
            }
          ],
          "rawValue": "0.4580246914",
          "formattedValue": "0.458"
        },
        {
          "operationId": "Mth_06_02_Mean",
          "resultGroups": [
            {
              "groupingId": "AnlsGrouping_52_Trt01An",
              "groupId": "AnlsGrouping_52_Trt01An_01"
            },
            {
              "groupingId": "AnlsGrouping_53_Param",
              "groupValue": "Platelet (GI/L)"
            }
          ],
          "rawValue": "233.78481013",
          "formattedValue": "233.8"
        },
        {
          "operationId": "Mth_06_02_Mean",
          "resultGroups": [
            {
              "groupingId": "AnlsGrouping_52_Trt01An",
              "groupId": "AnlsGrouping_52_Trt01An_01"
            },
            {
              "groupingId": "AnlsGrouping_53_Param",
              "groupValue": "Polychromasia"
            }
          ],
          "rawValue": "1",
          "formattedValue": "1.0"
        },
        {
          "operationId": "Mth_06_02_Mean",
          "resultGroups": [
            {
              "groupingId": "AnlsGrouping_52_Trt01An",
              "groupId": "AnlsGrouping_52_Trt01An_02"
            },
            {
              "groupingId": "AnlsGrouping_53_Param",
              "groupValue": "Anisocytes"
            }
          ],
          "rawValue": "1",
          "formattedValue": "1.0"
        },
        {
          "operationId": "Mth_06_02_Mean",
          "resultGroups": [
            {
              "groupingId": "AnlsGrouping_52_Trt01An",
              "groupId": "AnlsGrouping_52_Trt01An_02"
            },
            {
              "groupingId": "AnlsGrouping_53_Param",
              "groupValue": "Basophils (GI/L)"
            }
          ],
          "rawValue": "0.0520987654",
          "formattedValue": "0.052"
        },
        {
          "operationId": "Mth_06_02_Mean",
          "resultGroups": [
            {
              "groupingId": "AnlsGrouping_52_Trt01An",
              "groupId": "AnlsGrouping_52_Trt01An_02"
            },
            {
              "groupingId": "AnlsGrouping_53_Param",
              "groupValue": "Eosinophils (GI/L)"
            }
          ],
          "rawValue": "0.1439506173",
          "formattedValue": "0.144"
        },
        {
          "operationId": "Mth_06_02_Mean",
          "resultGroups": [
            {
              "groupingId": "AnlsGrouping_52_Trt01An",
              "groupId": "AnlsGrouping_52_Trt01An_02"
            },
            {
              "groupingId": "AnlsGrouping_53_Param",
              "groupValue": "Ery. Mean Corpuscular HGB Concentration (mmol/L)"
            }
          ],
          "rawValue": "20.5030725",
          "formattedValue": "20.50307"
        },
        {
          "operationId": "Mth_06_02_Mean",
          "resultGroups": [
            {
              "groupingId": "AnlsGrouping_52_Trt01An",
              "groupId": "AnlsGrouping_52_Trt01An_02"
            },
            {
              "groupingId": "AnlsGrouping_53_Param",
              "groupValue": "Ery. Mean Corpuscular Hemoglobin (fmol(Fe))"
            }
          ],
          "rawValue": "1.9161982716",
          "formattedValue": "1.916198"
        },
        {
          "operationId": "Mth_06_02_Mean",
          "resultGroups": [
            {
              "groupingId": "AnlsGrouping_52_Trt01An",
              "groupId": "AnlsGrouping_52_Trt01An_02"
            },
            {
              "groupingId": "AnlsGrouping_53_Param",
              "groupValue": "Ery. Mean Corpuscular Volume (fL)"
            }
          ],
          "rawValue": "93.3125",
          "formattedValue": "93.3"
        },
        {
          "operationId": "Mth_06_02_Mean",
          "resultGroups": [
            {
              "groupingId": "AnlsGrouping_52_Trt01An",
              "groupId": "AnlsGrouping_52_Trt01An_02"
            },
            {
              "groupingId": "AnlsGrouping_53_Param",
              "groupValue": "Erythrocytes (TI/L)"
            }
          ],
          "rawValue": "4.6654320988",
          "formattedValue": "4.67"
        },
        {
          "operationId": "Mth_06_02_Mean",
          "resultGroups": [
            {
              "groupingId": "AnlsGrouping_52_Trt01An",
              "groupId": "AnlsGrouping_52_Trt01An_02"
            },
            {
              "groupingId": "AnlsGrouping_53_Param",
              "groupValue": "Hematocrit"
            }
          ],
          "rawValue": "0.434",
          "formattedValue": "0.434"
        },
        {
          "operationId": "Mth_06_02_Mean",
          "resultGroups": [
            {
              "groupingId": "AnlsGrouping_52_Trt01An",
              "groupId": "AnlsGrouping_52_Trt01An_02"
            },
            {
              "groupingId": "AnlsGrouping_53_Param",
              "groupValue": "Hemoglobin (mmol/L)"
            }
          ],
          "rawValue": "8.8738138272",
          "formattedValue": "8.873814"
        },
        {
          "operationId": "Mth_06_02_Mean",
          "resultGroups": [
            {
              "groupingId": "AnlsGrouping_52_Trt01An",
              "groupId": "AnlsGrouping_52_Trt01An_02"
            },
            {
              "groupingId": "AnlsGrouping_53_Param",
              "groupValue": "Leukocytes (GI/L)"
            }
          ],
          "rawValue": "6.5472839506",
          "formattedValue": "6.547"
        },
        {
          "operationId": "Mth_06_02_Mean",
          "resultGroups": [
            {
              "groupingId": "AnlsGrouping_52_Trt01An",
              "groupId": "AnlsGrouping_52_Trt01An_02"
            },
            {
              "groupingId": "AnlsGrouping_53_Param",
              "groupValue": "Lymphocytes (GI/L)"
            }
          ],
          "rawValue": "1.6849382716",
          "formattedValue": "1.685"
        },
        {
          "operationId": "Mth_06_02_Mean",
          "resultGroups": [
            {
              "groupingId": "AnlsGrouping_52_Trt01An",
              "groupId": "AnlsGrouping_52_Trt01An_02"
            },
            {
              "groupingId": "AnlsGrouping_53_Param",
              "groupValue": "Monocytes (GI/L)"
            }
          ],
          "rawValue": "0.4292592593",
          "formattedValue": "0.429"
        },
        {
          "operationId": "Mth_06_02_Mean",
          "resultGroups": [
            {
              "groupingId": "AnlsGrouping_52_Trt01An",
              "groupId": "AnlsGrouping_52_Trt01An_02"
            },
            {
              "groupingId": "AnlsGrouping_53_Param",
              "groupValue": "Platelet (GI/L)"
            }
          ],
          "rawValue": "227.74074074",
          "formattedValue": "227.7"
        },
        {
          "operationId": "Mth_06_02_Mean",
          "resultGroups": [
            {
              "groupingId": "AnlsGrouping_52_Trt01An",
              "groupId": "AnlsGrouping_52_Trt01An_02"
            },
            {
              "groupingId": "AnlsGrouping_53_Param",
              "groupValue": "Polychromasia"
            }
          ],
          "rawValue": "1",
          "formattedValue": "1.0"
        },
        {
          "operationId": "Mth_06_02_Mean",
          "resultGroups": [
            {
              "groupingId": "AnlsGrouping_52_Trt01An",
              "groupId": "AnlsGrouping_52_Trt01An_03"
            },
            {
              "groupingId": "AnlsGrouping_53_Param",
              "groupValue": "Anisocytes"
            }
          ],
          "rawValue": "1",
          "formattedValue": "1.0"
        },
        {
          "operationId": "Mth_06_02_Mean",
          "resultGroups": [
            {
              "groupingId": "AnlsGrouping_52_Trt01An",
              "groupId": "AnlsGrouping_52_Trt01An_03"
            },
            {
              "groupingId": "AnlsGrouping_53_Param",
              "groupValue": "Basophils (GI/L)"
            }
          ],
          "rawValue": "0.0544705882",
          "formattedValue": "0.054"
        },
        {
          "operationId": "Mth_06_02_Mean",
          "resultGroups": [
            {
              "groupingId": "AnlsGrouping_52_Trt01An",
              "groupId": "AnlsGrouping_52_Trt01An_03"
            },
            {
              "groupingId": "AnlsGrouping_53_Param",
              "groupValue": "Eosinophils (GI/L)"
            }
          ],
          "rawValue": "0.1444705882",
          "formattedValue": "0.144"
        },
        {
          "operationId": "Mth_06_02_Mean",
          "resultGroups": [
            {
              "groupingId": "AnlsGrouping_52_Trt01An",
              "groupId": "AnlsGrouping_52_Trt01An_03"
            },
            {
              "groupingId": "AnlsGrouping_53_Param",
              "groupValue": "Ery. Mean Corpuscular HGB Concentration (mmol/L)"
            }
          ],
          "rawValue": "20.596618824",
          "formattedValue": "20.59662"
        },
        {
          "operationId": "Mth_06_02_Mean",
          "resultGroups": [
            {
              "groupingId": "AnlsGrouping_52_Trt01An",
              "groupId": "AnlsGrouping_52_Trt01An_03"
            },
            {
              "groupingId": "AnlsGrouping_53_Param",
              "groupValue": "Ery. Mean Corpuscular Hemoglobin (fmol(Fe))"
            }
          ],
          "rawValue": "1.911448",
          "formattedValue": "1.911448"
        },
        {
          "operationId": "Mth_06_02_Mean",
          "resultGroups": [
            {
              "groupingId": "AnlsGrouping_52_Trt01An",
              "groupId": "AnlsGrouping_52_Trt01An_03"
            },
            {
              "groupingId": "AnlsGrouping_53_Param",
              "groupValue": "Ery. Mean Corpuscular Volume (fL)"
            }
          ],
          "rawValue": "92.905882353",
          "formattedValue": "92.9"
        },
        {
          "operationId": "Mth_06_02_Mean",
          "resultGroups": [
            {
              "groupingId": "AnlsGrouping_52_Trt01An",
              "groupId": "AnlsGrouping_52_Trt01An_03"
            },
            {
              "groupingId": "AnlsGrouping_53_Param",
              "groupValue": "Erythrocytes (TI/L)"
            }
          ],
          "rawValue": "4.5270588235",
          "formattedValue": "4.53"
        },
        {
          "operationId": "Mth_06_02_Mean",
          "resultGroups": [
            {
              "groupingId": "AnlsGrouping_52_Trt01An",
              "groupId": "AnlsGrouping_52_Trt01An_03"
            },
            {
              "groupingId": "AnlsGrouping_53_Param",
              "groupValue": "Hematocrit"
            }
          ],
          "rawValue": "0.42",
          "formattedValue": "0.420"
        },
        {
          "operationId": "Mth_06_02_Mean",
          "resultGroups": [
            {
              "groupingId": "AnlsGrouping_52_Trt01An",
              "groupId": "AnlsGrouping_52_Trt01An_03"
            },
            {
              "groupingId": "AnlsGrouping_53_Param",
              "groupValue": "Hemoglobin (mmol/L)"
            }
          ],
          "rawValue": "8.6168484706",
          "formattedValue": "8.616848"
        },
        {
          "operationId": "Mth_06_02_Mean",
          "resultGroups": [
            {
              "groupingId": "AnlsGrouping_52_Trt01An",
              "groupId": "AnlsGrouping_52_Trt01An_03"
            },
            {
              "groupingId": "AnlsGrouping_53_Param",
              "groupValue": "Leukocytes (GI/L)"
            }
          ],
          "rawValue": "6.8656470588",
          "formattedValue": "6.866"
        },
        {
          "operationId": "Mth_06_02_Mean",
          "resultGroups": [
            {
              "groupingId": "AnlsGrouping_52_Trt01An",
              "groupId": "AnlsGrouping_52_Trt01An_03"
            },
            {
              "groupingId": "AnlsGrouping_53_Param",
              "groupValue": "Lymphocytes (GI/L)"
            }
          ],
          "rawValue": "1.8004705882",
          "formattedValue": "1.800"
        },
        {
          "operationId": "Mth_06_02_Mean",
          "resultGroups": [
            {
              "groupingId": "AnlsGrouping_52_Trt01An",
              "groupId": "AnlsGrouping_52_Trt01An_03"
            },
            {
              "groupingId": "AnlsGrouping_53_Param",
              "groupValue": "Macrocytes"
            }
          ],
          "rawValue": "1",
          "formattedValue": "1.0"
        },
        {
          "operationId": "Mth_06_02_Mean",
          "resultGroups": [
            {
              "groupingId": "AnlsGrouping_52_Trt01An",
              "groupId": "AnlsGrouping_52_Trt01An_03"
            },
            {
              "groupingId": "AnlsGrouping_53_Param",
              "groupValue": "Monocytes (GI/L)"
            }
          ],
          "rawValue": "0.4349411765",
          "formattedValue": "0.435"
        },
        {
          "operationId": "Mth_06_02_Mean",
          "resultGroups": [
            {
              "groupingId": "AnlsGrouping_52_Trt01An",
              "groupId": "AnlsGrouping_52_Trt01An_03"
            },
            {
              "groupingId": "AnlsGrouping_53_Param",
              "groupValue": "Platelet (GI/L)"
            }
          ],
          "rawValue": "250.32142857",
          "formattedValue": "250.3"
        },
        {
          "operationId": "Mth_06_02_Mean",
          "resultGroups": [
            {
              "groupingId": "AnlsGrouping_52_Trt01An",
              "groupId": "AnlsGrouping_52_Trt01An_03"
            },
            {
              "groupingId": "AnlsGrouping_53_Param",
              "groupValue": "Polychromasia"
            }
          ],
          "rawValue": "1",
          "formattedValue": "1.0"
        },
        {
          "operationId": "Mth_06_03_SD",
          "resultGroups": [
            {
              "groupingId": "AnlsGrouping_52_Trt01An",
              "groupId": "AnlsGrouping_52_Trt01An_01"
            },
            {
              "groupingId": "AnlsGrouping_53_Param",
              "groupValue": "Anisocytes"
            }
          ],
          "rawValue": "0",
          "formattedValue": "(0.00)"
        },
        {
          "operationId": "Mth_06_03_SD",
          "resultGroups": [
            {
              "groupingId": "AnlsGrouping_52_Trt01An",
              "groupId": "AnlsGrouping_52_Trt01An_01"
            },
            {
              "groupingId": "AnlsGrouping_53_Param",
              "groupValue": "Basophils (GI/L)"
            }
          ],
          "rawValue": "0.0307724624",
          "formattedValue": "(0.0308)"
        },
        {
          "operationId": "Mth_06_03_SD",
          "resultGroups": [
            {
              "groupingId": "AnlsGrouping_52_Trt01An",
              "groupId": "AnlsGrouping_52_Trt01An_01"
            },
            {
              "groupingId": "AnlsGrouping_53_Param",
              "groupValue": "Eosinophils (GI/L)"
            }
          ],
          "rawValue": "0.1190935414",
          "formattedValue": "(0.1191)"
        },
        {
          "operationId": "Mth_06_03_SD",
          "resultGroups": [
            {
              "groupingId": "AnlsGrouping_52_Trt01An",
              "groupId": "AnlsGrouping_52_Trt01An_01"
            },
            {
              "groupingId": "AnlsGrouping_53_Param",
              "groupValue": "Ery. Mean Corpuscular HGB Concentration (mmol/L)"
            }
          ],
          "rawValue": "0.9755243904",
          "formattedValue": "(0.975524)"
        },
        {
          "operationId": "Mth_06_03_SD",
          "resultGroups": [
            {
              "groupingId": "AnlsGrouping_52_Trt01An",
              "groupId": "AnlsGrouping_52_Trt01An_01"
            },
            {
              "groupingId": "AnlsGrouping_53_Param",
              "groupValue": "Ery. Mean Corpuscular Hemoglobin (fmol(Fe))"
            }
          ],
          "rawValue": "0.0920563123",
          "formattedValue": "(0.0920563)"
        },
        {
          "operationId": "Mth_06_03_SD",
          "resultGroups": [
            {
              "groupingId": "AnlsGrouping_52_Trt01An",
              "groupId": "AnlsGrouping_52_Trt01An_01"
            },
            {
              "groupingId": "AnlsGrouping_53_Param",
              "groupValue": "Ery. Mean Corpuscular Volume (fL)"
            }
          ],
          "rawValue": "4.8987210938",
          "formattedValue": "(4.90)"
        },
        {
          "operationId": "Mth_06_03_SD",
          "resultGroups": [
            {
              "groupingId": "AnlsGrouping_52_Trt01An",
              "groupId": "AnlsGrouping_52_Trt01An_01"
            },
            {
              "groupingId": "AnlsGrouping_53_Param",
              "groupValue": "Erythrocytes (TI/L)"
            }
          ],
          "rawValue": "0.4186545174",
          "formattedValue": "(0.419)"
        },
        {
          "operationId": "Mth_06_03_SD",
          "resultGroups": [
            {
              "groupingId": "AnlsGrouping_52_Trt01An",
              "groupId": "AnlsGrouping_52_Trt01An_01"
            },
            {
              "groupingId": "AnlsGrouping_53_Param",
              "groupValue": "Hematocrit"
            }
          ],
          "rawValue": "0.0371653847",
          "formattedValue": "(0.0372)"
        },
        {
          "operationId": "Mth_06_03_SD",
          "resultGroups": [
            {
              "groupingId": "AnlsGrouping_52_Trt01An",
              "groupId": "AnlsGrouping_52_Trt01An_01"
            },
            {
              "groupingId": "AnlsGrouping_53_Param",
              "groupValue": "Hemoglobin (mmol/L)"
            }
          ],
          "rawValue": "0.76797499",
          "formattedValue": "(0.7679750)"
        },
        {
          "operationId": "Mth_06_03_SD",
          "resultGroups": [
            {
              "groupingId": "AnlsGrouping_52_Trt01An",
              "groupId": "AnlsGrouping_52_Trt01An_01"
            },
            {
              "groupingId": "AnlsGrouping_53_Param",
              "groupValue": "Leukocytes (GI/L)"
            }
          ],
          "rawValue": "1.9531933808",
          "formattedValue": "(1.9532)"
        },
        {
          "operationId": "Mth_06_03_SD",
          "resultGroups": [
            {
              "groupingId": "AnlsGrouping_52_Trt01An",
              "groupId": "AnlsGrouping_52_Trt01An_01"
            },
            {
              "groupingId": "AnlsGrouping_53_Param",
              "groupValue": "Lymphocytes (GI/L)"
            }
          ],
          "rawValue": "0.5736653593",
          "formattedValue": "(0.5737)"
        },
        {
          "operationId": "Mth_06_03_SD",
          "resultGroups": [
            {
              "groupingId": "AnlsGrouping_52_Trt01An",
              "groupId": "AnlsGrouping_52_Trt01An_01"
            },
            {
              "groupingId": "AnlsGrouping_53_Param",
              "groupValue": "Macrocytes"
            }
          ],
          "rawValue": "0",
          "formattedValue": "(0.00)"
        },
        {
          "operationId": "Mth_06_03_SD",
          "resultGroups": [
            {
              "groupingId": "AnlsGrouping_52_Trt01An",
              "groupId": "AnlsGrouping_52_Trt01An_01"
            },
            {
              "groupingId": "AnlsGrouping_53_Param",
              "groupValue": "Monocytes (GI/L)"
            }
          ],
          "rawValue": "0.1624378324",
          "formattedValue": "(0.1624)"
        },
        {
          "operationId": "Mth_06_03_SD",
          "resultGroups": [
            {
              "groupingId": "AnlsGrouping_52_Trt01An",
              "groupId": "AnlsGrouping_52_Trt01An_01"
            },
            {
              "groupingId": "AnlsGrouping_53_Param",
              "groupValue": "Platelet (GI/L)"
            }
          ],
          "rawValue": "58.582983196",
          "formattedValue": "(58.58)"
        },
        {
          "operationId": "Mth_06_03_SD",
          "resultGroups": [
            {
              "groupingId": "AnlsGrouping_52_Trt01An",
              "groupId": "AnlsGrouping_52_Trt01An_01"
            },
            {
              "groupingId": "AnlsGrouping_53_Param",
              "groupValue": "Polychromasia"
            }
          ],
          "rawValue": "0",
          "formattedValue": "(0.00)"
        },
        {
          "operationId": "Mth_06_03_SD",
          "resultGroups": [
            {
              "groupingId": "AnlsGrouping_52_Trt01An",
              "groupId": "AnlsGrouping_52_Trt01An_02"
            },
            {
              "groupingId": "AnlsGrouping_53_Param",
              "groupValue": "Anisocytes"
            }
          ],
          "rawValue": "0",
          "formattedValue": "(0.00)"
        },
        {
          "operationId": "Mth_06_03_SD",
          "resultGroups": [
            {
              "groupingId": "AnlsGrouping_52_Trt01An",
              "groupId": "AnlsGrouping_52_Trt01An_02"
            },
            {
              "groupingId": "AnlsGrouping_53_Param",
              "groupValue": "Basophils (GI/L)"
            }
          ],
          "rawValue": "0.0204154384",
          "formattedValue": "(0.0204)"
        },
        {
          "operationId": "Mth_06_03_SD",
          "resultGroups": [
            {
              "groupingId": "AnlsGrouping_52_Trt01An",
              "groupId": "AnlsGrouping_52_Trt01An_02"
            },
            {
              "groupingId": "AnlsGrouping_53_Param",
              "groupValue": "Eosinophils (GI/L)"
            }
          ],
          "rawValue": "0.1048770591",
          "formattedValue": "(0.1049)"
        },
        {
          "operationId": "Mth_06_03_SD",
          "resultGroups": [
            {
              "groupingId": "AnlsGrouping_52_Trt01An",
              "groupId": "AnlsGrouping_52_Trt01An_02"
            },
            {
              "groupingId": "AnlsGrouping_53_Param",
              "groupValue": "Ery. Mean Corpuscular HGB Concentration (mmol/L)"
            }
          ],
          "rawValue": "0.8745656121",
          "formattedValue": "(0.874566)"
        },
        {
          "operationId": "Mth_06_03_SD",
          "resultGroups": [
            {
              "groupingId": "AnlsGrouping_52_Trt01An",
              "groupId": "AnlsGrouping_52_Trt01An_02"
            },
            {
              "groupingId": "AnlsGrouping_53_Param",
              "groupValue": "Ery. Mean Corpuscular Hemoglobin (fmol(Fe))"
            }
          ],
          "rawValue": "0.1258084615",
          "formattedValue": "(0.1258085)"
        },
        {
          "operationId": "Mth_06_03_SD",
          "resultGroups": [
            {
              "groupingId": "AnlsGrouping_52_Trt01An",
              "groupId": "AnlsGrouping_52_Trt01An_02"
            },
            {
              "groupingId": "AnlsGrouping_53_Param",
              "groupValue": "Ery. Mean Corpuscular Volume (fL)"
            }
          ],
          "rawValue": "5.9119997045",
          "formattedValue": "(5.91)"
        },
        {
          "operationId": "Mth_06_03_SD",
          "resultGroups": [
            {
              "groupingId": "AnlsGrouping_52_Trt01An",
              "groupId": "AnlsGrouping_52_Trt01An_02"
            },
            {
              "groupingId": "AnlsGrouping_53_Param",
              "groupValue": "Erythrocytes (TI/L)"
            }
          ],
          "rawValue": "0.4688177935",
          "formattedValue": "(0.469)"
        },
        {
          "operationId": "Mth_06_03_SD",
          "resultGroups": [
            {
              "groupingId": "AnlsGrouping_52_Trt01An",
              "groupId": "AnlsGrouping_52_Trt01An_02"
            },
            {
              "groupingId": "AnlsGrouping_53_Param",
              "groupValue": "Hematocrit"
            }
          ],
          "rawValue": "0.038272838",
          "formattedValue": "(0.0383)"
        },
        {
          "operationId": "Mth_06_03_SD",
          "resultGroups": [
            {
              "groupingId": "AnlsGrouping_52_Trt01An",
              "groupId": "AnlsGrouping_52_Trt01An_02"
            },
            {
              "groupingId": "AnlsGrouping_53_Param",
              "groupValue": "Hemoglobin (mmol/L)"
            }
          ],
          "rawValue": "0.783376538",
          "formattedValue": "(0.7833765)"
        },
        {
          "operationId": "Mth_06_03_SD",
          "resultGroups": [
            {
              "groupingId": "AnlsGrouping_52_Trt01An",
              "groupId": "AnlsGrouping_52_Trt01An_02"
            },
            {
              "groupingId": "AnlsGrouping_53_Param",
              "groupValue": "Leukocytes (GI/L)"
            }
          ],
          "rawValue": "1.5396809835",
          "formattedValue": "(1.5397)"
        },
        {
          "operationId": "Mth_06_03_SD",
          "resultGroups": [
            {
              "groupingId": "AnlsGrouping_52_Trt01An",
              "groupId": "AnlsGrouping_52_Trt01An_02"
            },
            {
              "groupingId": "AnlsGrouping_53_Param",
              "groupValue": "Lymphocytes (GI/L)"
            }
          ],
          "rawValue": "0.5199978929",
          "formattedValue": "(0.5200)"
        },
        {
          "operationId": "Mth_06_03_SD",
          "resultGroups": [
            {
              "groupingId": "AnlsGrouping_52_Trt01An",
              "groupId": "AnlsGrouping_52_Trt01An_02"
            },
            {
              "groupingId": "AnlsGrouping_53_Param",
              "groupValue": "Monocytes (GI/L)"
            }
          ],
          "rawValue": "0.1180230674",
          "formattedValue": "(0.1180)"
        },
        {
          "operationId": "Mth_06_03_SD",
          "resultGroups": [
            {
              "groupingId": "AnlsGrouping_52_Trt01An",
              "groupId": "AnlsGrouping_52_Trt01An_02"
            },
            {
              "groupingId": "AnlsGrouping_53_Param",
              "groupValue": "Platelet (GI/L)"
            }
          ],
          "rawValue": "54.736591458",
          "formattedValue": "(54.74)"
        },
        {
          "operationId": "Mth_06_03_SD",
          "resultGroups": [
            {
              "groupingId": "AnlsGrouping_52_Trt01An",
              "groupId": "AnlsGrouping_52_Trt01An_02"
            },
            {
              "groupingId": "AnlsGrouping_53_Param",
              "groupValue": "Polychromasia"
            }
          ],
          "rawValue": "0",
          "formattedValue": "(0.00)"
        },
        {
          "operationId": "Mth_06_03_SD",
          "resultGroups": [
            {
              "groupingId": "AnlsGrouping_52_Trt01An",
              "groupId": "AnlsGrouping_52_Trt01An_03"
            },
            {
              "groupingId": "AnlsGrouping_53_Param",
              "groupValue": "Anisocytes"
            }
          ],
          "rawValue": "0",
          "formattedValue": "(0.00)"
        },
        {
          "operationId": "Mth_06_03_SD",
          "resultGroups": [
            {
              "groupingId": "AnlsGrouping_52_Trt01An",
              "groupId": "AnlsGrouping_52_Trt01An_03"
            },
            {
              "groupingId": "AnlsGrouping_53_Param",
              "groupValue": "Basophils (GI/L)"
            }
          ],
          "rawValue": "0.0364007418",
          "formattedValue": "(0.0364)"
        },
        {
          "operationId": "Mth_06_03_SD",
          "resultGroups": [
            {
              "groupingId": "AnlsGrouping_52_Trt01An",
              "groupId": "AnlsGrouping_52_Trt01An_03"
            },
            {
              "groupingId": "AnlsGrouping_53_Param",
              "groupValue": "Eosinophils (GI/L)"
            }
          ],
          "rawValue": "0.1239480102",
          "formattedValue": "(0.1239)"
        },
        {
          "operationId": "Mth_06_03_SD",
          "resultGroups": [
            {
              "groupingId": "AnlsGrouping_52_Trt01An",
              "groupId": "AnlsGrouping_52_Trt01An_03"
            },
            {
              "groupingId": "AnlsGrouping_53_Param",
              "groupValue": "Ery. Mean Corpuscular HGB Concentration (mmol/L)"
            }
          ],
          "rawValue": "0.8697583702",
          "formattedValue": "(0.869758)"
        },
        {
          "operationId": "Mth_06_03_SD",
          "resultGroups": [
            {
              "groupingId": "AnlsGrouping_52_Trt01An",
              "groupId": "AnlsGrouping_52_Trt01An_03"
            },
            {
              "groupingId": "AnlsGrouping_53_Param",
              "groupValue": "Ery. Mean Corpuscular Hemoglobin (fmol(Fe))"
            }
          ],
          "rawValue": "0.1164191283",
          "formattedValue": "(0.1164191)"
        },
        {
          "operationId": "Mth_06_03_SD",
          "resultGroups": [
            {
              "groupingId": "AnlsGrouping_52_Trt01An",
              "groupId": "AnlsGrouping_52_Trt01An_03"
            },
            {
              "groupingId": "AnlsGrouping_53_Param",
              "groupValue": "Ery. Mean Corpuscular Volume (fL)"
            }
          ],
          "rawValue": "5.6896387228",
          "formattedValue": "(5.69)"
        },
        {
          "operationId": "Mth_06_03_SD",
          "resultGroups": [
            {
              "groupingId": "AnlsGrouping_52_Trt01An",
              "groupId": "AnlsGrouping_52_Trt01An_03"
            },
            {
              "groupingId": "AnlsGrouping_53_Param",
              "groupValue": "Erythrocytes (TI/L)"
            }
          ],
          "rawValue": "0.4481146312",
          "formattedValue": "(0.448)"
        },
        {
          "operationId": "Mth_06_03_SD",
          "resultGroups": [
            {
              "groupingId": "AnlsGrouping_52_Trt01An",
              "groupId": "AnlsGrouping_52_Trt01An_03"
            },
            {
              "groupingId": "AnlsGrouping_53_Param",
              "groupValue": "Hematocrit"
            }
          ],
          "rawValue": "0.0405908739",
          "formattedValue": "(0.0406)"
        },
        {
          "operationId": "Mth_06_03_SD",
          "resultGroups": [
            {
              "groupingId": "AnlsGrouping_52_Trt01An",
              "groupId": "AnlsGrouping_52_Trt01An_03"
            },
            {
              "groupingId": "AnlsGrouping_53_Param",
              "groupValue": "Hemoglobin (mmol/L)"
            }
          ],
          "rawValue": "0.827679373",
          "formattedValue": "(0.8276794)"
        },
        {
          "operationId": "Mth_06_03_SD",
          "resultGroups": [
            {
              "groupingId": "AnlsGrouping_52_Trt01An",
              "groupId": "AnlsGrouping_52_Trt01An_03"
            },
            {
              "groupingId": "AnlsGrouping_53_Param",
              "groupValue": "Leukocytes (GI/L)"
            }
          ],
          "rawValue": "1.7587200751",
          "formattedValue": "(1.7587)"
        },
        {
          "operationId": "Mth_06_03_SD",
          "resultGroups": [
            {
              "groupingId": "AnlsGrouping_52_Trt01An",
              "groupId": "AnlsGrouping_52_Trt01An_03"
            },
            {
              "groupingId": "AnlsGrouping_53_Param",
              "groupValue": "Lymphocytes (GI/L)"
            }
          ],
          "rawValue": "0.573809131",
          "formattedValue": "(0.5738)"
        },
        {
          "operationId": "Mth_06_03_SD",
          "resultGroups": [
            {
              "groupingId": "AnlsGrouping_52_Trt01An",
              "groupId": "AnlsGrouping_52_Trt01An_03"
            },
            {
              "groupingId": "AnlsGrouping_53_Param",
              "groupValue": "Macrocytes"
            }
          ],
          "rawValue": "0",
          "formattedValue": "(0.00)"
        },
        {
          "operationId": "Mth_06_03_SD",
          "resultGroups": [
            {
              "groupingId": "AnlsGrouping_52_Trt01An",
              "groupId": "AnlsGrouping_52_Trt01An_03"
            },
            {
              "groupingId": "AnlsGrouping_53_Param",
              "groupValue": "Monocytes (GI/L)"
            }
          ],
          "rawValue": "0.150954294",
          "formattedValue": "(0.1510)"
        },
        {
          "operationId": "Mth_06_03_SD",
          "resultGroups": [
            {
              "groupingId": "AnlsGrouping_52_Trt01An",
              "groupId": "AnlsGrouping_52_Trt01An_03"
            },
            {
              "groupingId": "AnlsGrouping_53_Param",
              "groupValue": "Platelet (GI/L)"
            }
          ],
          "rawValue": "65.52276542",
          "formattedValue": "(65.52)"
        },
        {
          "operationId": "Mth_06_03_SD",
          "resultGroups": [
            {
              "groupingId": "AnlsGrouping_52_Trt01An",
              "groupId": "AnlsGrouping_52_Trt01An_03"
            },
            {
              "groupingId": "AnlsGrouping_53_Param",
              "groupValue": "Polychromasia"
            }
          ],
          "rawValue": "0",
          "formattedValue": "(0.00)"
        },
        {
          "operationId": "Mth_06_04_Median",
          "resultGroups": [
            {
              "groupingId": "AnlsGrouping_52_Trt01An",
              "groupId": "AnlsGrouping_52_Trt01An_01"
            },
            {
              "groupingId": "AnlsGrouping_53_Param",
              "groupValue": "Anisocytes"
            }
          ],
          "rawValue": "1",
          "formattedValue": "1.0"
        },
        {
          "operationId": "Mth_06_04_Median",
          "resultGroups": [
            {
              "groupingId": "AnlsGrouping_52_Trt01An",
              "groupId": "AnlsGrouping_52_Trt01An_01"
            },
            {
              "groupingId": "AnlsGrouping_53_Param",
              "groupValue": "Basophils (GI/L)"
            }
          ],
          "rawValue": "0.05",
          "formattedValue": "0.050"
        },
        {
          "operationId": "Mth_06_04_Median",
          "resultGroups": [
            {
              "groupingId": "AnlsGrouping_52_Trt01An",
              "groupId": "AnlsGrouping_52_Trt01An_01"
            },
            {
              "groupingId": "AnlsGrouping_53_Param",
              "groupValue": "Eosinophils (GI/L)"
            }
          ],
          "rawValue": "0.12",
          "formattedValue": "0.120"
        },
        {
          "operationId": "Mth_06_04_Median",
          "resultGroups": [
            {
              "groupingId": "AnlsGrouping_52_Trt01An",
              "groupId": "AnlsGrouping_52_Trt01An_01"
            },
            {
              "groupingId": "AnlsGrouping_53_Param",
              "groupValue": "Ery. Mean Corpuscular HGB Concentration (mmol/L)"
            }
          ],
          "rawValue": "20.4798",
          "formattedValue": "20.47980"
        },
        {
          "operationId": "Mth_06_04_Median",
          "resultGroups": [
            {
              "groupingId": "AnlsGrouping_52_Trt01An",
              "groupId": "AnlsGrouping_52_Trt01An_01"
            },
            {
              "groupingId": "AnlsGrouping_53_Param",
              "groupValue": "Ery. Mean Corpuscular Hemoglobin (fmol(Fe))"
            }
          ],
          "rawValue": "1.92386",
          "formattedValue": "1.923860"
        },
        {
          "operationId": "Mth_06_04_Median",
          "resultGroups": [
            {
              "groupingId": "AnlsGrouping_52_Trt01An",
              "groupId": "AnlsGrouping_52_Trt01An_01"
            },
            {
              "groupingId": "AnlsGrouping_53_Param",
              "groupValue": "Ery. Mean Corpuscular Volume (fL)"
            }
          ],
          "rawValue": "93",
          "formattedValue": "93.0"
        },
        {
          "operationId": "Mth_06_04_Median",
          "resultGroups": [
            {
              "groupingId": "AnlsGrouping_52_Trt01An",
              "groupId": "AnlsGrouping_52_Trt01An_01"
            },
            {
              "groupingId": "AnlsGrouping_53_Param",
              "groupValue": "Erythrocytes (TI/L)"
            }
          ],
          "rawValue": "4.6",
          "formattedValue": "4.60"
        },
        {
          "operationId": "Mth_06_04_Median",
          "resultGroups": [
            {
              "groupingId": "AnlsGrouping_52_Trt01An",
              "groupId": "AnlsGrouping_52_Trt01An_01"
            },
            {
              "groupingId": "AnlsGrouping_53_Param",
              "groupValue": "Hematocrit"
            }
          ],
          "rawValue": "0.43",
          "formattedValue": "0.430"
        },
        {
          "operationId": "Mth_06_04_Median",
          "resultGroups": [
            {
              "groupingId": "AnlsGrouping_52_Trt01An",
              "groupId": "AnlsGrouping_52_Trt01An_01"
            },
            {
              "groupingId": "AnlsGrouping_53_Param",
              "groupValue": "Hemoglobin (mmol/L)"
            }
          ],
          "rawValue": "8.56428",
          "formattedValue": "8.564280"
        },
        {
          "operationId": "Mth_06_04_Median",
          "resultGroups": [
            {
              "groupingId": "AnlsGrouping_52_Trt01An",
              "groupId": "AnlsGrouping_52_Trt01An_01"
            },
            {
              "groupingId": "AnlsGrouping_53_Param",
              "groupValue": "Leukocytes (GI/L)"
            }
          ],
          "rawValue": "6.38",
          "formattedValue": "6.380"
        },
        {
          "operationId": "Mth_06_04_Median",
          "resultGroups": [
            {
              "groupingId": "AnlsGrouping_52_Trt01An",
              "groupId": "AnlsGrouping_52_Trt01An_01"
            },
            {
              "groupingId": "AnlsGrouping_53_Param",
              "groupValue": "Lymphocytes (GI/L)"
            }
          ],
          "rawValue": "1.65",
          "formattedValue": "1.650"
        },
        {
          "operationId": "Mth_06_04_Median",
          "resultGroups": [
            {
              "groupingId": "AnlsGrouping_52_Trt01An",
              "groupId": "AnlsGrouping_52_Trt01An_01"
            },
            {
              "groupingId": "AnlsGrouping_53_Param",
              "groupValue": "Macrocytes"
            }
          ],
          "rawValue": "1",
          "formattedValue": "1.0"
        },
        {
          "operationId": "Mth_06_04_Median",
          "resultGroups": [
            {
              "groupingId": "AnlsGrouping_52_Trt01An",
              "groupId": "AnlsGrouping_52_Trt01An_01"
            },
            {
              "groupingId": "AnlsGrouping_53_Param",
              "groupValue": "Monocytes (GI/L)"
            }
          ],
          "rawValue": "0.42",
          "formattedValue": "0.420"
        },
        {
          "operationId": "Mth_06_04_Median",
          "resultGroups": [
            {
              "groupingId": "AnlsGrouping_52_Trt01An",
              "groupId": "AnlsGrouping_52_Trt01An_01"
            },
            {
              "groupingId": "AnlsGrouping_53_Param",
              "groupValue": "Platelet (GI/L)"
            }
          ],
          "rawValue": "228",
          "formattedValue": "228.0"
        },
        {
          "operationId": "Mth_06_04_Median",
          "resultGroups": [
            {
              "groupingId": "AnlsGrouping_52_Trt01An",
              "groupId": "AnlsGrouping_52_Trt01An_01"
            },
            {
              "groupingId": "AnlsGrouping_53_Param",
              "groupValue": "Polychromasia"
            }
          ],
          "rawValue": "1",
          "formattedValue": "1.0"
        },
        {
          "operationId": "Mth_06_04_Median",
          "resultGroups": [
            {
              "groupingId": "AnlsGrouping_52_Trt01An",
              "groupId": "AnlsGrouping_52_Trt01An_02"
            },
            {
              "groupingId": "AnlsGrouping_53_Param",
              "groupValue": "Anisocytes"
            }
          ],
          "rawValue": "1",
          "formattedValue": "1.0"
        },
        {
          "operationId": "Mth_06_04_Median",
          "resultGroups": [
            {
              "groupingId": "AnlsGrouping_52_Trt01An",
              "groupId": "AnlsGrouping_52_Trt01An_02"
            },
            {
              "groupingId": "AnlsGrouping_53_Param",
              "groupValue": "Basophils (GI/L)"
            }
          ],
          "rawValue": "0.05",
          "formattedValue": "0.050"
        },
        {
          "operationId": "Mth_06_04_Median",
          "resultGroups": [
            {
              "groupingId": "AnlsGrouping_52_Trt01An",
              "groupId": "AnlsGrouping_52_Trt01An_02"
            },
            {
              "groupingId": "AnlsGrouping_53_Param",
              "groupValue": "Eosinophils (GI/L)"
            }
          ],
          "rawValue": "0.11",
          "formattedValue": "0.110"
        },
        {
          "operationId": "Mth_06_04_Median",
          "resultGroups": [
            {
              "groupingId": "AnlsGrouping_52_Trt01An",
              "groupId": "AnlsGrouping_52_Trt01An_02"
            },
            {
              "groupingId": "AnlsGrouping_53_Param",
              "groupValue": "Ery. Mean Corpuscular HGB Concentration (mmol/L)"
            }
          ],
          "rawValue": "20.4798",
          "formattedValue": "20.47980"
        },
        {
          "operationId": "Mth_06_04_Median",
          "resultGroups": [
            {
              "groupingId": "AnlsGrouping_52_Trt01An",
              "groupId": "AnlsGrouping_52_Trt01An_02"
            },
            {
              "groupingId": "AnlsGrouping_53_Param",
              "groupValue": "Ery. Mean Corpuscular Hemoglobin (fmol(Fe))"
            }
          ],
          "rawValue": "1.92386",
          "formattedValue": "1.923860"
        },
        {
          "operationId": "Mth_06_04_Median",
          "resultGroups": [
            {
              "groupingId": "AnlsGrouping_52_Trt01An",
              "groupId": "AnlsGrouping_52_Trt01An_02"
            },
            {
              "groupingId": "AnlsGrouping_53_Param",
              "groupValue": "Ery. Mean Corpuscular Volume (fL)"
            }
          ],
          "rawValue": "94",
          "formattedValue": "94.0"
        },
        {
          "operationId": "Mth_06_04_Median",
          "resultGroups": [
            {
              "groupingId": "AnlsGrouping_52_Trt01An",
              "groupId": "AnlsGrouping_52_Trt01An_02"
            },
            {
              "groupingId": "AnlsGrouping_53_Param",
              "groupValue": "Erythrocytes (TI/L)"
            }
          ],
          "rawValue": "4.7",
          "formattedValue": "4.70"
        },
        {
          "operationId": "Mth_06_04_Median",
          "resultGroups": [
            {
              "groupingId": "AnlsGrouping_52_Trt01An",
              "groupId": "AnlsGrouping_52_Trt01An_02"
            },
            {
              "groupingId": "AnlsGrouping_53_Param",
              "groupValue": "Hematocrit"
            }
          ],
          "rawValue": "0.43",
          "formattedValue": "0.430"
        },
        {
          "operationId": "Mth_06_04_Median",
          "resultGroups": [
            {
              "groupingId": "AnlsGrouping_52_Trt01An",
              "groupId": "AnlsGrouping_52_Trt01An_02"
            },
            {
              "groupingId": "AnlsGrouping_53_Param",
              "groupValue": "Hemoglobin (mmol/L)"
            }
          ],
          "rawValue": "8.87458",
          "formattedValue": "8.874580"
        },
        {
          "operationId": "Mth_06_04_Median",
          "resultGroups": [
            {
              "groupingId": "AnlsGrouping_52_Trt01An",
              "groupId": "AnlsGrouping_52_Trt01An_02"
            },
            {
              "groupingId": "AnlsGrouping_53_Param",
              "groupValue": "Leukocytes (GI/L)"
            }
          ],
          "rawValue": "6.34",
          "formattedValue": "6.340"
        },
        {
          "operationId": "Mth_06_04_Median",
          "resultGroups": [
            {
              "groupingId": "AnlsGrouping_52_Trt01An",
              "groupId": "AnlsGrouping_52_Trt01An_02"
            },
            {
              "groupingId": "AnlsGrouping_53_Param",
              "groupValue": "Lymphocytes (GI/L)"
            }
          ],
          "rawValue": "1.65",
          "formattedValue": "1.650"
        },
        {
          "operationId": "Mth_06_04_Median",
          "resultGroups": [
            {
              "groupingId": "AnlsGrouping_52_Trt01An",
              "groupId": "AnlsGrouping_52_Trt01An_02"
            },
            {
              "groupingId": "AnlsGrouping_53_Param",
              "groupValue": "Monocytes (GI/L)"
            }
          ],
          "rawValue": "0.42",
          "formattedValue": "0.420"
        },
        {
          "operationId": "Mth_06_04_Median",
          "resultGroups": [
            {
              "groupingId": "AnlsGrouping_52_Trt01An",
              "groupId": "AnlsGrouping_52_Trt01An_02"
            },
            {
              "groupingId": "AnlsGrouping_53_Param",
              "groupValue": "Platelet (GI/L)"
            }
          ],
          "rawValue": "220",
          "formattedValue": "220.0"
        },
        {
          "operationId": "Mth_06_04_Median",
          "resultGroups": [
            {
              "groupingId": "AnlsGrouping_52_Trt01An",
              "groupId": "AnlsGrouping_52_Trt01An_02"
            },
            {
              "groupingId": "AnlsGrouping_53_Param",
              "groupValue": "Polychromasia"
            }
          ],
          "rawValue": "1",
          "formattedValue": "1.0"
        },
        {
          "operationId": "Mth_06_04_Median",
          "resultGroups": [
            {
              "groupingId": "AnlsGrouping_52_Trt01An",
              "groupId": "AnlsGrouping_52_Trt01An_03"
            },
            {
              "groupingId": "AnlsGrouping_53_Param",
              "groupValue": "Anisocytes"
            }
          ],
          "rawValue": "1",
          "formattedValue": "1.0"
        },
        {
          "operationId": "Mth_06_04_Median",
          "resultGroups": [
            {
              "groupingId": "AnlsGrouping_52_Trt01An",
              "groupId": "AnlsGrouping_52_Trt01An_03"
            },
            {
              "groupingId": "AnlsGrouping_53_Param",
              "groupValue": "Basophils (GI/L)"
            }
          ],
          "rawValue": "0.05",
          "formattedValue": "0.050"
        },
        {
          "operationId": "Mth_06_04_Median",
          "resultGroups": [
            {
              "groupingId": "AnlsGrouping_52_Trt01An",
              "groupId": "AnlsGrouping_52_Trt01An_03"
            },
            {
              "groupingId": "AnlsGrouping_53_Param",
              "groupValue": "Eosinophils (GI/L)"
            }
          ],
          "rawValue": "0.11",
          "formattedValue": "0.110"
        },
        {
          "operationId": "Mth_06_04_Median",
          "resultGroups": [
            {
              "groupingId": "AnlsGrouping_52_Trt01An",
              "groupId": "AnlsGrouping_52_Trt01An_03"
            },
            {
              "groupingId": "AnlsGrouping_53_Param",
              "groupValue": "Ery. Mean Corpuscular HGB Concentration (mmol/L)"
            }
          ],
          "rawValue": "20.4798",
          "formattedValue": "20.47980"
        },
        {
          "operationId": "Mth_06_04_Median",
          "resultGroups": [
            {
              "groupingId": "AnlsGrouping_52_Trt01An",
              "groupId": "AnlsGrouping_52_Trt01An_03"
            },
            {
              "groupingId": "AnlsGrouping_53_Param",
              "groupValue": "Ery. Mean Corpuscular Hemoglobin (fmol(Fe))"
            }
          ],
          "rawValue": "1.92386",
          "formattedValue": "1.923860"
        },
        {
          "operationId": "Mth_06_04_Median",
          "resultGroups": [
            {
              "groupingId": "AnlsGrouping_52_Trt01An",
              "groupId": "AnlsGrouping_52_Trt01An_03"
            },
            {
              "groupingId": "AnlsGrouping_53_Param",
              "groupValue": "Ery. Mean Corpuscular Volume (fL)"
            }
          ],
          "rawValue": "93",
          "formattedValue": "93.0"
        },
        {
          "operationId": "Mth_06_04_Median",
          "resultGroups": [
            {
              "groupingId": "AnlsGrouping_52_Trt01An",
              "groupId": "AnlsGrouping_52_Trt01An_03"
            },
            {
              "groupingId": "AnlsGrouping_53_Param",
              "groupValue": "Erythrocytes (TI/L)"
            }
          ],
          "rawValue": "4.5",
          "formattedValue": "4.50"
        },
        {
          "operationId": "Mth_06_04_Median",
          "resultGroups": [
            {
              "groupingId": "AnlsGrouping_52_Trt01An",
              "groupId": "AnlsGrouping_52_Trt01An_03"
            },
            {
              "groupingId": "AnlsGrouping_53_Param",
              "groupValue": "Hematocrit"
            }
          ],
          "rawValue": "0.42",
          "formattedValue": "0.420"
        },
        {
          "operationId": "Mth_06_04_Median",
          "resultGroups": [
            {
              "groupingId": "AnlsGrouping_52_Trt01An",
              "groupId": "AnlsGrouping_52_Trt01An_03"
            },
            {
              "groupingId": "AnlsGrouping_53_Param",
              "groupValue": "Hemoglobin (mmol/L)"
            }
          ],
          "rawValue": "8.62634",
          "formattedValue": "8.626340"
        },
        {
          "operationId": "Mth_06_04_Median",
          "resultGroups": [
            {
              "groupingId": "AnlsGrouping_52_Trt01An",
              "groupId": "AnlsGrouping_52_Trt01An_03"
            },
            {
              "groupingId": "AnlsGrouping_53_Param",
              "groupValue": "Leukocytes (GI/L)"
            }
          ],
          "rawValue": "6.59",
          "formattedValue": "6.590"
        },
        {
          "operationId": "Mth_06_04_Median",
          "resultGroups": [
            {
              "groupingId": "AnlsGrouping_52_Trt01An",
              "groupId": "AnlsGrouping_52_Trt01An_03"
            },
            {
              "groupingId": "AnlsGrouping_53_Param",
              "groupValue": "Lymphocytes (GI/L)"
            }
          ],
          "rawValue": "1.79",
          "formattedValue": "1.790"
        },
        {
          "operationId": "Mth_06_04_Median",
          "resultGroups": [
            {
              "groupingId": "AnlsGrouping_52_Trt01An",
              "groupId": "AnlsGrouping_52_Trt01An_03"
            },
            {
              "groupingId": "AnlsGrouping_53_Param",
              "groupValue": "Macrocytes"
            }
          ],
          "rawValue": "1",
          "formattedValue": "1.0"
        },
        {
          "operationId": "Mth_06_04_Median",
          "resultGroups": [
            {
              "groupingId": "AnlsGrouping_52_Trt01An",
              "groupId": "AnlsGrouping_52_Trt01An_03"
            },
            {
              "groupingId": "AnlsGrouping_53_Param",
              "groupValue": "Monocytes (GI/L)"
            }
          ],
          "rawValue": "0.41",
          "formattedValue": "0.410"
        },
        {
          "operationId": "Mth_06_04_Median",
          "resultGroups": [
            {
              "groupingId": "AnlsGrouping_52_Trt01An",
              "groupId": "AnlsGrouping_52_Trt01An_03"
            },
            {
              "groupingId": "AnlsGrouping_53_Param",
              "groupValue": "Platelet (GI/L)"
            }
          ],
          "rawValue": "242",
          "formattedValue": "242.0"
        },
        {
          "operationId": "Mth_06_04_Median",
          "resultGroups": [
            {
              "groupingId": "AnlsGrouping_52_Trt01An",
              "groupId": "AnlsGrouping_52_Trt01An_03"
            },
            {
              "groupingId": "AnlsGrouping_53_Param",
              "groupValue": "Polychromasia"
            }
          ],
          "rawValue": "1",
          "formattedValue": "1.0"
        },
        {
          "operationId": "Mth_06_07_Min",
          "resultGroups": [
            {
              "groupingId": "AnlsGrouping_52_Trt01An",
              "groupId": "AnlsGrouping_52_Trt01An_01"
            },
            {
              "groupingId": "AnlsGrouping_53_Param",
              "groupValue": "Anisocytes"
            }
          ],
          "rawValue": "1",
          "formattedValue": "1"
        },
        {
          "operationId": "Mth_06_07_Min",
          "resultGroups": [
            {
              "groupingId": "AnlsGrouping_52_Trt01An",
              "groupId": "AnlsGrouping_52_Trt01An_01"
            },
            {
              "groupingId": "AnlsGrouping_53_Param",
              "groupValue": "Basophils (GI/L)"
            }
          ],
          "rawValue": "0",
          "formattedValue": "0.00"
        },
        {
          "operationId": "Mth_06_07_Min",
          "resultGroups": [
            {
              "groupingId": "AnlsGrouping_52_Trt01An",
              "groupId": "AnlsGrouping_52_Trt01An_01"
            },
            {
              "groupingId": "AnlsGrouping_53_Param",
              "groupValue": "Eosinophils (GI/L)"
            }
          ],
          "rawValue": "0.01",
          "formattedValue": "0.01"
        },
        {
          "operationId": "Mth_06_07_Min",
          "resultGroups": [
            {
              "groupingId": "AnlsGrouping_52_Trt01An",
              "groupId": "AnlsGrouping_52_Trt01An_01"
            },
            {
              "groupingId": "AnlsGrouping_53_Param",
              "groupValue": "Ery. Mean Corpuscular HGB Concentration (mmol/L)"
            }
          ],
          "rawValue": "18.618",
          "formattedValue": "18.6180"
        },
        {
          "operationId": "Mth_06_07_Min",
          "resultGroups": [
            {
              "groupingId": "AnlsGrouping_52_Trt01An",
              "groupId": "AnlsGrouping_52_Trt01An_01"
            },
            {
              "groupingId": "AnlsGrouping_53_Param",
              "groupValue": "Ery. Mean Corpuscular Hemoglobin (fmol(Fe))"
            }
          ],
          "rawValue": "1.73768",
          "formattedValue": "1.73768"
        },
        {
          "operationId": "Mth_06_07_Min",
          "resultGroups": [
            {
              "groupingId": "AnlsGrouping_52_Trt01An",
              "groupId": "AnlsGrouping_52_Trt01An_01"
            },
            {
              "groupingId": "AnlsGrouping_53_Param",
              "groupValue": "Ery. Mean Corpuscular Volume (fL)"
            }
          ],
          "rawValue": "84",
          "formattedValue": "84"
        },
        {
          "operationId": "Mth_06_07_Min",
          "resultGroups": [
            {
              "groupingId": "AnlsGrouping_52_Trt01An",
              "groupId": "AnlsGrouping_52_Trt01An_01"
            },
            {
              "groupingId": "AnlsGrouping_53_Param",
              "groupValue": "Erythrocytes (TI/L)"
            }
          ],
          "rawValue": "3.4",
          "formattedValue": "3.4"
        },
        {
          "operationId": "Mth_06_07_Min",
          "resultGroups": [
            {
              "groupingId": "AnlsGrouping_52_Trt01An",
              "groupId": "AnlsGrouping_52_Trt01An_01"
            },
            {
              "groupingId": "AnlsGrouping_53_Param",
              "groupValue": "Hematocrit"
            }
          ],
          "rawValue": "0.35",
          "formattedValue": "0.35"
        },
        {
          "operationId": "Mth_06_07_Min",
          "resultGroups": [
            {
              "groupingId": "AnlsGrouping_52_Trt01An",
              "groupId": "AnlsGrouping_52_Trt01An_01"
            },
            {
              "groupingId": "AnlsGrouping_53_Param",
              "groupValue": "Hemoglobin (mmol/L)"
            }
          ],
          "rawValue": "6.57836",
          "formattedValue": "6.57836"
        },
        {
          "operationId": "Mth_06_07_Min",
          "resultGroups": [
            {
              "groupingId": "AnlsGrouping_52_Trt01An",
              "groupId": "AnlsGrouping_52_Trt01An_01"
            },
            {
              "groupingId": "AnlsGrouping_53_Param",
              "groupValue": "Leukocytes (GI/L)"
            }
          ],
          "rawValue": "2.78",
          "formattedValue": "2.78"
        },
        {
          "operationId": "Mth_06_07_Min",
          "resultGroups": [
            {
              "groupingId": "AnlsGrouping_52_Trt01An",
              "groupId": "AnlsGrouping_52_Trt01An_01"
            },
            {
              "groupingId": "AnlsGrouping_53_Param",
              "groupValue": "Lymphocytes (GI/L)"
            }
          ],
          "rawValue": "0.85",
          "formattedValue": "0.85"
        },
        {
          "operationId": "Mth_06_07_Min",
          "resultGroups": [
            {
              "groupingId": "AnlsGrouping_52_Trt01An",
              "groupId": "AnlsGrouping_52_Trt01An_01"
            },
            {
              "groupingId": "AnlsGrouping_53_Param",
              "groupValue": "Macrocytes"
            }
          ],
          "rawValue": "1",
          "formattedValue": "1"
        },
        {
          "operationId": "Mth_06_07_Min",
          "resultGroups": [
            {
              "groupingId": "AnlsGrouping_52_Trt01An",
              "groupId": "AnlsGrouping_52_Trt01An_01"
            },
            {
              "groupingId": "AnlsGrouping_53_Param",
              "groupValue": "Monocytes (GI/L)"
            }
          ],
          "rawValue": "0.15",
          "formattedValue": "0.15"
        },
        {
          "operationId": "Mth_06_07_Min",
          "resultGroups": [
            {
              "groupingId": "AnlsGrouping_52_Trt01An",
              "groupId": "AnlsGrouping_52_Trt01An_01"
            },
            {
              "groupingId": "AnlsGrouping_53_Param",
              "groupValue": "Platelet (GI/L)"
            }
          ],
          "rawValue": "119",
          "formattedValue": "119"
        },
        {
          "operationId": "Mth_06_07_Min",
          "resultGroups": [
            {
              "groupingId": "AnlsGrouping_52_Trt01An",
              "groupId": "AnlsGrouping_52_Trt01An_01"
            },
            {
              "groupingId": "AnlsGrouping_53_Param",
              "groupValue": "Polychromasia"
            }
          ],
          "rawValue": "1",
          "formattedValue": "1"
        },
        {
          "operationId": "Mth_06_07_Min",
          "resultGroups": [
            {
              "groupingId": "AnlsGrouping_52_Trt01An",
              "groupId": "AnlsGrouping_52_Trt01An_02"
            },
            {
              "groupingId": "AnlsGrouping_53_Param",
              "groupValue": "Anisocytes"
            }
          ],
          "rawValue": "1",
          "formattedValue": "1"
        },
        {
          "operationId": "Mth_06_07_Min",
          "resultGroups": [
            {
              "groupingId": "AnlsGrouping_52_Trt01An",
              "groupId": "AnlsGrouping_52_Trt01An_02"
            },
            {
              "groupingId": "AnlsGrouping_53_Param",
              "groupValue": "Basophils (GI/L)"
            }
          ],
          "rawValue": "0",
          "formattedValue": "0.00"
        },
        {
          "operationId": "Mth_06_07_Min",
          "resultGroups": [
            {
              "groupingId": "AnlsGrouping_52_Trt01An",
              "groupId": "AnlsGrouping_52_Trt01An_02"
            },
            {
              "groupingId": "AnlsGrouping_53_Param",
              "groupValue": "Eosinophils (GI/L)"
            }
          ],
          "rawValue": "0.03",
          "formattedValue": "0.03"
        },
        {
          "operationId": "Mth_06_07_Min",
          "resultGroups": [
            {
              "groupingId": "AnlsGrouping_52_Trt01An",
              "groupId": "AnlsGrouping_52_Trt01An_02"
            },
            {
              "groupingId": "AnlsGrouping_53_Param",
              "groupValue": "Ery. Mean Corpuscular HGB Concentration (mmol/L)"
            }
          ],
          "rawValue": "17.9974",
          "formattedValue": "17.9974"
        },
        {
          "operationId": "Mth_06_07_Min",
          "resultGroups": [
            {
              "groupingId": "AnlsGrouping_52_Trt01An",
              "groupId": "AnlsGrouping_52_Trt01An_02"
            },
            {
              "groupingId": "AnlsGrouping_53_Param",
              "groupValue": "Ery. Mean Corpuscular Hemoglobin (fmol(Fe))"
            }
          ],
          "rawValue": "1.30326",
          "formattedValue": "1.30326"
        },
        {
          "operationId": "Mth_06_07_Min",
          "resultGroups": [
            {
              "groupingId": "AnlsGrouping_52_Trt01An",
              "groupId": "AnlsGrouping_52_Trt01An_02"
            },
            {
              "groupingId": "AnlsGrouping_53_Param",
              "groupValue": "Ery. Mean Corpuscular Volume (fL)"
            }
          ],
          "rawValue": "71",
          "formattedValue": "71"
        },
        {
          "operationId": "Mth_06_07_Min",
          "resultGroups": [
            {
              "groupingId": "AnlsGrouping_52_Trt01An",
              "groupId": "AnlsGrouping_52_Trt01An_02"
            },
            {
              "groupingId": "AnlsGrouping_53_Param",
              "groupValue": "Erythrocytes (TI/L)"
            }
          ],
          "rawValue": "3.7",
          "formattedValue": "3.7"
        },
        {
          "operationId": "Mth_06_07_Min",
          "resultGroups": [
            {
              "groupingId": "AnlsGrouping_52_Trt01An",
              "groupId": "AnlsGrouping_52_Trt01An_02"
            },
            {
              "groupingId": "AnlsGrouping_53_Param",
              "groupValue": "Hematocrit"
            }
          ],
          "rawValue": "0.34",
          "formattedValue": "0.34"
        },
        {
          "operationId": "Mth_06_07_Min",
          "resultGroups": [
            {
              "groupingId": "AnlsGrouping_52_Trt01An",
              "groupId": "AnlsGrouping_52_Trt01An_02"
            },
            {
              "groupingId": "AnlsGrouping_53_Param",
              "groupValue": "Hemoglobin (mmol/L)"
            }
          ],
          "rawValue": "7.4472",
          "formattedValue": "7.44720"
        },
        {
          "operationId": "Mth_06_07_Min",
          "resultGroups": [
            {
              "groupingId": "AnlsGrouping_52_Trt01An",
              "groupId": "AnlsGrouping_52_Trt01An_02"
            },
            {
              "groupingId": "AnlsGrouping_53_Param",
              "groupValue": "Leukocytes (GI/L)"
            }
          ],
          "rawValue": "3.61",
          "formattedValue": "3.61"
        },
        {
          "operationId": "Mth_06_07_Min",
          "resultGroups": [
            {
              "groupingId": "AnlsGrouping_52_Trt01An",
              "groupId": "AnlsGrouping_52_Trt01An_02"
            },
            {
              "groupingId": "AnlsGrouping_53_Param",
              "groupValue": "Lymphocytes (GI/L)"
            }
          ],
          "rawValue": "0.72",
          "formattedValue": "0.72"
        },
        {
          "operationId": "Mth_06_07_Min",
          "resultGroups": [
            {
              "groupingId": "AnlsGrouping_52_Trt01An",
              "groupId": "AnlsGrouping_52_Trt01An_02"
            },
            {
              "groupingId": "AnlsGrouping_53_Param",
              "groupValue": "Monocytes (GI/L)"
            }
          ],
          "rawValue": "0.14",
          "formattedValue": "0.14"
        },
        {
          "operationId": "Mth_06_07_Min",
          "resultGroups": [
            {
              "groupingId": "AnlsGrouping_52_Trt01An",
              "groupId": "AnlsGrouping_52_Trt01An_02"
            },
            {
              "groupingId": "AnlsGrouping_53_Param",
              "groupValue": "Platelet (GI/L)"
            }
          ],
          "rawValue": "111",
          "formattedValue": "111"
        },
        {
          "operationId": "Mth_06_07_Min",
          "resultGroups": [
            {
              "groupingId": "AnlsGrouping_52_Trt01An",
              "groupId": "AnlsGrouping_52_Trt01An_02"
            },
            {
              "groupingId": "AnlsGrouping_53_Param",
              "groupValue": "Polychromasia"
            }
          ],
          "rawValue": "1",
          "formattedValue": "1"
        },
        {
          "operationId": "Mth_06_07_Min",
          "resultGroups": [
            {
              "groupingId": "AnlsGrouping_52_Trt01An",
              "groupId": "AnlsGrouping_52_Trt01An_03"
            },
            {
              "groupingId": "AnlsGrouping_53_Param",
              "groupValue": "Anisocytes"
            }
          ],
          "rawValue": "1",
          "formattedValue": "1"
        },
        {
          "operationId": "Mth_06_07_Min",
          "resultGroups": [
            {
              "groupingId": "AnlsGrouping_52_Trt01An",
              "groupId": "AnlsGrouping_52_Trt01An_03"
            },
            {
              "groupingId": "AnlsGrouping_53_Param",
              "groupValue": "Basophils (GI/L)"
            }
          ],
          "rawValue": "0",
          "formattedValue": "0.00"
        },
        {
          "operationId": "Mth_06_07_Min",
          "resultGroups": [
            {
              "groupingId": "AnlsGrouping_52_Trt01An",
              "groupId": "AnlsGrouping_52_Trt01An_03"
            },
            {
              "groupingId": "AnlsGrouping_53_Param",
              "groupValue": "Eosinophils (GI/L)"
            }
          ],
          "rawValue": "0.01",
          "formattedValue": "0.01"
        },
        {
          "operationId": "Mth_06_07_Min",
          "resultGroups": [
            {
              "groupingId": "AnlsGrouping_52_Trt01An",
              "groupId": "AnlsGrouping_52_Trt01An_03"
            },
            {
              "groupingId": "AnlsGrouping_53_Param",
              "groupValue": "Ery. Mean Corpuscular HGB Concentration (mmol/L)"
            }
          ],
          "rawValue": "18.618",
          "formattedValue": "18.6180"
        },
        {
          "operationId": "Mth_06_07_Min",
          "resultGroups": [
            {
              "groupingId": "AnlsGrouping_52_Trt01An",
              "groupId": "AnlsGrouping_52_Trt01An_03"
            },
            {
              "groupingId": "AnlsGrouping_53_Param",
              "groupValue": "Ery. Mean Corpuscular Hemoglobin (fmol(Fe))"
            }
          ],
          "rawValue": "1.61356",
          "formattedValue": "1.61356"
        },
        {
          "operationId": "Mth_06_07_Min",
          "resultGroups": [
            {
              "groupingId": "AnlsGrouping_52_Trt01An",
              "groupId": "AnlsGrouping_52_Trt01An_03"
            },
            {
              "groupingId": "AnlsGrouping_53_Param",
              "groupValue": "Ery. Mean Corpuscular Volume (fL)"
            }
          ],
          "rawValue": "80",
          "formattedValue": "80"
        },
        {
          "operationId": "Mth_06_07_Min",
          "resultGroups": [
            {
              "groupingId": "AnlsGrouping_52_Trt01An",
              "groupId": "AnlsGrouping_52_Trt01An_03"
            },
            {
              "groupingId": "AnlsGrouping_53_Param",
              "groupValue": "Erythrocytes (TI/L)"
            }
          ],
          "rawValue": "3.3",
          "formattedValue": "3.3"
        },
        {
          "operationId": "Mth_06_07_Min",
          "resultGroups": [
            {
              "groupingId": "AnlsGrouping_52_Trt01An",
              "groupId": "AnlsGrouping_52_Trt01An_03"
            },
            {
              "groupingId": "AnlsGrouping_53_Param",
              "groupValue": "Hematocrit"
            }
          ],
          "rawValue": "0.32",
          "formattedValue": "0.32"
        },
        {
          "operationId": "Mth_06_07_Min",
          "resultGroups": [
            {
              "groupingId": "AnlsGrouping_52_Trt01An",
              "groupId": "AnlsGrouping_52_Trt01An_03"
            },
            {
              "groupingId": "AnlsGrouping_53_Param",
              "groupValue": "Hemoglobin (mmol/L)"
            }
          ],
          "rawValue": "6.39218",
          "formattedValue": "6.39218"
        },
        {
          "operationId": "Mth_06_07_Min",
          "resultGroups": [
            {
              "groupingId": "AnlsGrouping_52_Trt01An",
              "groupId": "AnlsGrouping_52_Trt01An_03"
            },
            {
              "groupingId": "AnlsGrouping_53_Param",
              "groupValue": "Leukocytes (GI/L)"
            }
          ],
          "rawValue": "3.99",
          "formattedValue": "3.99"
        },
        {
          "operationId": "Mth_06_07_Min",
          "resultGroups": [
            {
              "groupingId": "AnlsGrouping_52_Trt01An",
              "groupId": "AnlsGrouping_52_Trt01An_03"
            },
            {
              "groupingId": "AnlsGrouping_53_Param",
              "groupValue": "Lymphocytes (GI/L)"
            }
          ],
          "rawValue": "0.78",
          "formattedValue": "0.78"
        },
        {
          "operationId": "Mth_06_07_Min",
          "resultGroups": [
            {
              "groupingId": "AnlsGrouping_52_Trt01An",
              "groupId": "AnlsGrouping_52_Trt01An_03"
            },
            {
              "groupingId": "AnlsGrouping_53_Param",
              "groupValue": "Macrocytes"
            }
          ],
          "rawValue": "1",
          "formattedValue": "1"
        },
        {
          "operationId": "Mth_06_07_Min",
          "resultGroups": [
            {
              "groupingId": "AnlsGrouping_52_Trt01An",
              "groupId": "AnlsGrouping_52_Trt01An_03"
            },
            {
              "groupingId": "AnlsGrouping_53_Param",
              "groupValue": "Monocytes (GI/L)"
            }
          ],
          "rawValue": "0.22",
          "formattedValue": "0.22"
        },
        {
          "operationId": "Mth_06_07_Min",
          "resultGroups": [
            {
              "groupingId": "AnlsGrouping_52_Trt01An",
              "groupId": "AnlsGrouping_52_Trt01An_03"
            },
            {
              "groupingId": "AnlsGrouping_53_Param",
              "groupValue": "Platelet (GI/L)"
            }
          ],
          "rawValue": "147",
          "formattedValue": "147"
        },
        {
          "operationId": "Mth_06_07_Min",
          "resultGroups": [
            {
              "groupingId": "AnlsGrouping_52_Trt01An",
              "groupId": "AnlsGrouping_52_Trt01An_03"
            },
            {
              "groupingId": "AnlsGrouping_53_Param",
              "groupValue": "Polychromasia"
            }
          ],
          "rawValue": "1",
          "formattedValue": "1"
        },
        {
          "operationId": "Mth_06_08_Max",
          "resultGroups": [
            {
              "groupingId": "AnlsGrouping_52_Trt01An",
              "groupId": "AnlsGrouping_52_Trt01An_01"
            },
            {
              "groupingId": "AnlsGrouping_53_Param",
              "groupValue": "Anisocytes"
            }
          ],
          "rawValue": "1",
          "formattedValue": "1"
        },
        {
          "operationId": "Mth_06_08_Max",
          "resultGroups": [
            {
              "groupingId": "AnlsGrouping_52_Trt01An",
              "groupId": "AnlsGrouping_52_Trt01An_01"
            },
            {
              "groupingId": "AnlsGrouping_53_Param",
              "groupValue": "Basophils (GI/L)"
            }
          ],
          "rawValue": "0.18",
          "formattedValue": "0.18"
        },
        {
          "operationId": "Mth_06_08_Max",
          "resultGroups": [
            {
              "groupingId": "AnlsGrouping_52_Trt01An",
              "groupId": "AnlsGrouping_52_Trt01An_01"
            },
            {
              "groupingId": "AnlsGrouping_53_Param",
              "groupValue": "Eosinophils (GI/L)"
            }
          ],
          "rawValue": "0.89",
          "formattedValue": "0.89"
        },
        {
          "operationId": "Mth_06_08_Max",
          "resultGroups": [
            {
              "groupingId": "AnlsGrouping_52_Trt01An",
              "groupId": "AnlsGrouping_52_Trt01An_01"
            },
            {
              "groupingId": "AnlsGrouping_53_Param",
              "groupValue": "Ery. Mean Corpuscular HGB Concentration (mmol/L)"
            }
          ],
          "rawValue": "22.3416",
          "formattedValue": "22.3416"
        },
        {
          "operationId": "Mth_06_08_Max",
          "resultGroups": [
            {
              "groupingId": "AnlsGrouping_52_Trt01An",
              "groupId": "AnlsGrouping_52_Trt01An_01"
            },
            {
              "groupingId": "AnlsGrouping_53_Param",
              "groupValue": "Ery. Mean Corpuscular Hemoglobin (fmol(Fe))"
            }
          ],
          "rawValue": "2.11004",
          "formattedValue": "2.11004"
        },
        {
          "operationId": "Mth_06_08_Max",
          "resultGroups": [
            {
              "groupingId": "AnlsGrouping_52_Trt01An",
              "groupId": "AnlsGrouping_52_Trt01An_01"
            },
            {
              "groupingId": "AnlsGrouping_53_Param",
              "groupValue": "Ery. Mean Corpuscular Volume (fL)"
            }
          ],
          "rawValue": "112",
          "formattedValue": "112"
        },
        {
          "operationId": "Mth_06_08_Max",
          "resultGroups": [
            {
              "groupingId": "AnlsGrouping_52_Trt01An",
              "groupId": "AnlsGrouping_52_Trt01An_01"
            },
            {
              "groupingId": "AnlsGrouping_53_Param",
              "groupValue": "Erythrocytes (TI/L)"
            }
          ],
          "rawValue": "5.7",
          "formattedValue": "5.7"
        },
        {
          "operationId": "Mth_06_08_Max",
          "resultGroups": [
            {
              "groupingId": "AnlsGrouping_52_Trt01An",
              "groupId": "AnlsGrouping_52_Trt01An_01"
            },
            {
              "groupingId": "AnlsGrouping_53_Param",
              "groupValue": "Hematocrit"
            }
          ],
          "rawValue": "0.52",
          "formattedValue": "0.52"
        },
        {
          "operationId": "Mth_06_08_Max",
          "resultGroups": [
            {
              "groupingId": "AnlsGrouping_52_Trt01An",
              "groupId": "AnlsGrouping_52_Trt01An_01"
            },
            {
              "groupingId": "AnlsGrouping_53_Param",
              "groupValue": "Hemoglobin (mmol/L)"
            }
          ],
          "rawValue": "10.17784",
          "formattedValue": "10.17784"
        },
        {
          "operationId": "Mth_06_08_Max",
          "resultGroups": [
            {
              "groupingId": "AnlsGrouping_52_Trt01An",
              "groupId": "AnlsGrouping_52_Trt01An_01"
            },
            {
              "groupingId": "AnlsGrouping_53_Param",
              "groupValue": "Leukocytes (GI/L)"
            }
          ],
          "rawValue": "14.77",
          "formattedValue": "14.77"
        },
        {
          "operationId": "Mth_06_08_Max",
          "resultGroups": [
            {
              "groupingId": "AnlsGrouping_52_Trt01An",
              "groupId": "AnlsGrouping_52_Trt01An_01"
            },
            {
              "groupingId": "AnlsGrouping_53_Param",
              "groupValue": "Lymphocytes (GI/L)"
            }
          ],
          "rawValue": "3.75",
          "formattedValue": "3.75"
        },
        {
          "operationId": "Mth_06_08_Max",
          "resultGroups": [
            {
              "groupingId": "AnlsGrouping_52_Trt01An",
              "groupId": "AnlsGrouping_52_Trt01An_01"
            },
            {
              "groupingId": "AnlsGrouping_53_Param",
              "groupValue": "Macrocytes"
            }
          ],
          "rawValue": "1",
          "formattedValue": "1"
        },
        {
          "operationId": "Mth_06_08_Max",
          "resultGroups": [
            {
              "groupingId": "AnlsGrouping_52_Trt01An",
              "groupId": "AnlsGrouping_52_Trt01An_01"
            },
            {
              "groupingId": "AnlsGrouping_53_Param",
              "groupValue": "Monocytes (GI/L)"
            }
          ],
          "rawValue": "1",
          "formattedValue": "1.00"
        },
        {
          "operationId": "Mth_06_08_Max",
          "resultGroups": [
            {
              "groupingId": "AnlsGrouping_52_Trt01An",
              "groupId": "AnlsGrouping_52_Trt01An_01"
            },
            {
              "groupingId": "AnlsGrouping_53_Param",
              "groupValue": "Platelet (GI/L)"
            }
          ],
          "rawValue": "450",
          "formattedValue": "450"
        },
        {
          "operationId": "Mth_06_08_Max",
          "resultGroups": [
            {
              "groupingId": "AnlsGrouping_52_Trt01An",
              "groupId": "AnlsGrouping_52_Trt01An_01"
            },
            {
              "groupingId": "AnlsGrouping_53_Param",
              "groupValue": "Polychromasia"
            }
          ],
          "rawValue": "1",
          "formattedValue": "1"
        },
        {
          "operationId": "Mth_06_08_Max",
          "resultGroups": [
            {
              "groupingId": "AnlsGrouping_52_Trt01An",
              "groupId": "AnlsGrouping_52_Trt01An_02"
            },
            {
              "groupingId": "AnlsGrouping_53_Param",
              "groupValue": "Anisocytes"
            }
          ],
          "rawValue": "1",
          "formattedValue": "1"
        },
        {
          "operationId": "Mth_06_08_Max",
          "resultGroups": [
            {
              "groupingId": "AnlsGrouping_52_Trt01An",
              "groupId": "AnlsGrouping_52_Trt01An_02"
            },
            {
              "groupingId": "AnlsGrouping_53_Param",
              "groupValue": "Basophils (GI/L)"
            }
          ],
          "rawValue": "0.11",
          "formattedValue": "0.11"
        },
        {
          "operationId": "Mth_06_08_Max",
          "resultGroups": [
            {
              "groupingId": "AnlsGrouping_52_Trt01An",
              "groupId": "AnlsGrouping_52_Trt01An_02"
            },
            {
              "groupingId": "AnlsGrouping_53_Param",
              "groupValue": "Eosinophils (GI/L)"
            }
          ],
          "rawValue": "0.59",
          "formattedValue": "0.59"
        },
        {
          "operationId": "Mth_06_08_Max",
          "resultGroups": [
            {
              "groupingId": "AnlsGrouping_52_Trt01An",
              "groupId": "AnlsGrouping_52_Trt01An_02"
            },
            {
              "groupingId": "AnlsGrouping_53_Param",
              "groupValue": "Ery. Mean Corpuscular HGB Concentration (mmol/L)"
            }
          ],
          "rawValue": "22.3416",
          "formattedValue": "22.3416"
        },
        {
          "operationId": "Mth_06_08_Max",
          "resultGroups": [
            {
              "groupingId": "AnlsGrouping_52_Trt01An",
              "groupId": "AnlsGrouping_52_Trt01An_02"
            },
            {
              "groupingId": "AnlsGrouping_53_Param",
              "groupValue": "Ery. Mean Corpuscular Hemoglobin (fmol(Fe))"
            }
          ],
          "rawValue": "2.29622",
          "formattedValue": "2.29622"
        },
        {
          "operationId": "Mth_06_08_Max",
          "resultGroups": [
            {
              "groupingId": "AnlsGrouping_52_Trt01An",
              "groupId": "AnlsGrouping_52_Trt01An_02"
            },
            {
              "groupingId": "AnlsGrouping_53_Param",
              "groupValue": "Ery. Mean Corpuscular Volume (fL)"
            }
          ],
          "rawValue": "107",
          "formattedValue": "107"
        },
        {
          "operationId": "Mth_06_08_Max",
          "resultGroups": [
            {
              "groupingId": "AnlsGrouping_52_Trt01An",
              "groupId": "AnlsGrouping_52_Trt01An_02"
            },
            {
              "groupingId": "AnlsGrouping_53_Param",
              "groupValue": "Erythrocytes (TI/L)"
            }
          ],
          "rawValue": "5.7",
          "formattedValue": "5.7"
        },
        {
          "operationId": "Mth_06_08_Max",
          "resultGroups": [
            {
              "groupingId": "AnlsGrouping_52_Trt01An",
              "groupId": "AnlsGrouping_52_Trt01An_02"
            },
            {
              "groupingId": "AnlsGrouping_53_Param",
              "groupValue": "Hematocrit"
            }
          ],
          "rawValue": "0.53",
          "formattedValue": "0.53"
        },
        {
          "operationId": "Mth_06_08_Max",
          "resultGroups": [
            {
              "groupingId": "AnlsGrouping_52_Trt01An",
              "groupId": "AnlsGrouping_52_Trt01An_02"
            },
            {
              "groupingId": "AnlsGrouping_53_Param",
              "groupValue": "Hemoglobin (mmol/L)"
            }
          ],
          "rawValue": "10.5502",
          "formattedValue": "10.55020"
        },
        {
          "operationId": "Mth_06_08_Max",
          "resultGroups": [
            {
              "groupingId": "AnlsGrouping_52_Trt01An",
              "groupId": "AnlsGrouping_52_Trt01An_02"
            },
            {
              "groupingId": "AnlsGrouping_53_Param",
              "groupValue": "Leukocytes (GI/L)"
            }
          ],
          "rawValue": "10.63",
          "formattedValue": "10.63"
        },
        {
          "operationId": "Mth_06_08_Max",
          "resultGroups": [
            {
              "groupingId": "AnlsGrouping_52_Trt01An",
              "groupId": "AnlsGrouping_52_Trt01An_02"
            },
            {
              "groupingId": "AnlsGrouping_53_Param",
              "groupValue": "Lymphocytes (GI/L)"
            }
          ],
          "rawValue": "3.02",
          "formattedValue": "3.02"
        },
        {
          "operationId": "Mth_06_08_Max",
          "resultGroups": [
            {
              "groupingId": "AnlsGrouping_52_Trt01An",
              "groupId": "AnlsGrouping_52_Trt01An_02"
            },
            {
              "groupingId": "AnlsGrouping_53_Param",
              "groupValue": "Monocytes (GI/L)"
            }
          ],
          "rawValue": "0.71",
          "formattedValue": "0.71"
        },
        {
          "operationId": "Mth_06_08_Max",
          "resultGroups": [
            {
              "groupingId": "AnlsGrouping_52_Trt01An",
              "groupId": "AnlsGrouping_52_Trt01An_02"
            },
            {
              "groupingId": "AnlsGrouping_53_Param",
              "groupValue": "Platelet (GI/L)"
            }
          ],
          "rawValue": "366",
          "formattedValue": "366"
        },
        {
          "operationId": "Mth_06_08_Max",
          "resultGroups": [
            {
              "groupingId": "AnlsGrouping_52_Trt01An",
              "groupId": "AnlsGrouping_52_Trt01An_02"
            },
            {
              "groupingId": "AnlsGrouping_53_Param",
              "groupValue": "Polychromasia"
            }
          ],
          "rawValue": "1",
          "formattedValue": "1"
        },
        {
          "operationId": "Mth_06_08_Max",
          "resultGroups": [
            {
              "groupingId": "AnlsGrouping_52_Trt01An",
              "groupId": "AnlsGrouping_52_Trt01An_03"
            },
            {
              "groupingId": "AnlsGrouping_53_Param",
              "groupValue": "Anisocytes"
            }
          ],
          "rawValue": "1",
          "formattedValue": "1"
        },
        {
          "operationId": "Mth_06_08_Max",
          "resultGroups": [
            {
              "groupingId": "AnlsGrouping_52_Trt01An",
              "groupId": "AnlsGrouping_52_Trt01An_03"
            },
            {
              "groupingId": "AnlsGrouping_53_Param",
              "groupValue": "Basophils (GI/L)"
            }
          ],
          "rawValue": "0.23",
          "formattedValue": "0.23"
        },
        {
          "operationId": "Mth_06_08_Max",
          "resultGroups": [
            {
              "groupingId": "AnlsGrouping_52_Trt01An",
              "groupId": "AnlsGrouping_52_Trt01An_03"
            },
            {
              "groupingId": "AnlsGrouping_53_Param",
              "groupValue": "Eosinophils (GI/L)"
            }
          ],
          "rawValue": "0.56",
          "formattedValue": "0.56"
        },
        {
          "operationId": "Mth_06_08_Max",
          "resultGroups": [
            {
              "groupingId": "AnlsGrouping_52_Trt01An",
              "groupId": "AnlsGrouping_52_Trt01An_03"
            },
            {
              "groupingId": "AnlsGrouping_53_Param",
              "groupValue": "Ery. Mean Corpuscular HGB Concentration (mmol/L)"
            }
          ],
          "rawValue": "22.3416",
          "formattedValue": "22.3416"
        },
        {
          "operationId": "Mth_06_08_Max",
          "resultGroups": [
            {
              "groupingId": "AnlsGrouping_52_Trt01An",
              "groupId": "AnlsGrouping_52_Trt01An_03"
            },
            {
              "groupingId": "AnlsGrouping_53_Param",
              "groupValue": "Ery. Mean Corpuscular Hemoglobin (fmol(Fe))"
            }
          ],
          "rawValue": "2.1721",
          "formattedValue": "2.17210"
        },
        {
          "operationId": "Mth_06_08_Max",
          "resultGroups": [
            {
              "groupingId": "AnlsGrouping_52_Trt01An",
              "groupId": "AnlsGrouping_52_Trt01An_03"
            },
            {
              "groupingId": "AnlsGrouping_53_Param",
              "groupValue": "Ery. Mean Corpuscular Volume (fL)"
            }
          ],
          "rawValue": "109",
          "formattedValue": "109"
        },
        {
          "operationId": "Mth_06_08_Max",
          "resultGroups": [
            {
              "groupingId": "AnlsGrouping_52_Trt01An",
              "groupId": "AnlsGrouping_52_Trt01An_03"
            },
            {
              "groupingId": "AnlsGrouping_53_Param",
              "groupValue": "Erythrocytes (TI/L)"
            }
          ],
          "rawValue": "5.5",
          "formattedValue": "5.5"
        },
        {
          "operationId": "Mth_06_08_Max",
          "resultGroups": [
            {
              "groupingId": "AnlsGrouping_52_Trt01An",
              "groupId": "AnlsGrouping_52_Trt01An_03"
            },
            {
              "groupingId": "AnlsGrouping_53_Param",
              "groupValue": "Hematocrit"
            }
          ],
          "rawValue": "0.52",
          "formattedValue": "0.52"
        },
        {
          "operationId": "Mth_06_08_Max",
          "resultGroups": [
            {
              "groupingId": "AnlsGrouping_52_Trt01An",
              "groupId": "AnlsGrouping_52_Trt01An_03"
            },
            {
              "groupingId": "AnlsGrouping_53_Param",
              "groupValue": "Hemoglobin (mmol/L)"
            }
          ],
          "rawValue": "10.42608",
          "formattedValue": "10.42608"
        },
        {
          "operationId": "Mth_06_08_Max",
          "resultGroups": [
            {
              "groupingId": "AnlsGrouping_52_Trt01An",
              "groupId": "AnlsGrouping_52_Trt01An_03"
            },
            {
              "groupingId": "AnlsGrouping_53_Param",
              "groupValue": "Leukocytes (GI/L)"
            }
          ],
          "rawValue": "13.78",
          "formattedValue": "13.78"
        },
        {
          "operationId": "Mth_06_08_Max",
          "resultGroups": [
            {
              "groupingId": "AnlsGrouping_52_Trt01An",
              "groupId": "AnlsGrouping_52_Trt01An_03"
            },
            {
              "groupingId": "AnlsGrouping_53_Param",
              "groupValue": "Lymphocytes (GI/L)"
            }
          ],
          "rawValue": "3.94",
          "formattedValue": "3.94"
        },
        {
          "operationId": "Mth_06_08_Max",
          "resultGroups": [
            {
              "groupingId": "AnlsGrouping_52_Trt01An",
              "groupId": "AnlsGrouping_52_Trt01An_03"
            },
            {
              "groupingId": "AnlsGrouping_53_Param",
              "groupValue": "Macrocytes"
            }
          ],
          "rawValue": "1",
          "formattedValue": "1"
        },
        {
          "operationId": "Mth_06_08_Max",
          "resultGroups": [
            {
              "groupingId": "AnlsGrouping_52_Trt01An",
              "groupId": "AnlsGrouping_52_Trt01An_03"
            },
            {
              "groupingId": "AnlsGrouping_53_Param",
              "groupValue": "Monocytes (GI/L)"
            }
          ],
          "rawValue": "1.17",
          "formattedValue": "1.17"
        },
        {
          "operationId": "Mth_06_08_Max",
          "resultGroups": [
            {
              "groupingId": "AnlsGrouping_52_Trt01An",
              "groupId": "AnlsGrouping_52_Trt01An_03"
            },
            {
              "groupingId": "AnlsGrouping_53_Param",
              "groupValue": "Platelet (GI/L)"
            }
          ],
          "rawValue": "572",
          "formattedValue": "572"
        },
        {
          "operationId": "Mth_06_08_Max",
          "resultGroups": [
            {
              "groupingId": "AnlsGrouping_52_Trt01An",
              "groupId": "AnlsGrouping_52_Trt01An_03"
            },
            {
              "groupingId": "AnlsGrouping_53_Param",
              "groupValue": "Polychromasia"
            }
          ],
          "rawValue": "1",
          "formattedValue": "1"
        }
      ]
    },
    {
      "name": "Summary of Analysis Value by Treatment, Parameter (Unit) and Visit",
      "id": "An_95",
      "reason": {
        "controlledTerm": "SPECIFIED IN SAP"
      },
      "purpose": {
        "controlledTerm": "PRIMARY OUTCOME MEASURE"
      },
      "methodId": "Mth_06",
      "version": 1,
      "categoryIds": [
        "ANSET_01",
        "ANSET_01_ANINT_01"
      ],
      "dataset": "ADLB",
      "variable": "AVAL",
      "analysisSetId": "AnalysisSet_01",
      "dataSubsetId": "Dss_33",
      "orderedGroupings": [
        {
          "order": 1,
          "groupingId": "AnlsGrouping_52_Trt01An",
          "resultsByGroup": true
        },
        {
          "order": 2,
          "groupingId": "AnlsGrouping_53_Param",
          "resultsByGroup": true
        },
        {
          "order": 3,
          "groupingId": "AnlsGrouping_55_Aval",
          "resultsByGroup": true
        }
      ],
      "results": [
        {
          "operationId": "Mth_06_01_n",
          "resultGroups": [
            {
              "groupingId": "AnlsGrouping_52_Trt01An",
              "groupId": "AnlsGrouping_52_Trt01An_01"
            },
            {
              "groupingId": "AnlsGrouping_53_Param",
              "groupValue": "Anisocytes"
            },
            {
              "groupingId": "AnlsGrouping_55_Aval",
              "groupValue": "End of Treatment"
            }
          ],
          "rawValue": "21",
          "formattedValue": "21"
        },
        {
          "operationId": "Mth_06_01_n",
          "resultGroups": [
            {
              "groupingId": "AnlsGrouping_52_Trt01An",
              "groupId": "AnlsGrouping_52_Trt01An_01"
            },
            {
              "groupingId": "AnlsGrouping_53_Param",
              "groupValue": "Anisocytes"
            },
            {
              "groupingId": "AnlsGrouping_55_Aval",
              "groupValue": "Week 12"
            }
          ],
          "rawValue": "3",
          "formattedValue": "3"
        },
        {
          "operationId": "Mth_06_01_n",
          "resultGroups": [
            {
              "groupingId": "AnlsGrouping_52_Trt01An",
              "groupId": "AnlsGrouping_52_Trt01An_01"
            },
            {
              "groupingId": "AnlsGrouping_53_Param",
              "groupValue": "Anisocytes"
            },
            {
              "groupingId": "AnlsGrouping_55_Aval",
              "groupValue": "Week 16"
            }
          ],
          "rawValue": "9",
          "formattedValue": "9"
        },
        {
          "operationId": "Mth_06_01_n",
          "resultGroups": [
            {
              "groupingId": "AnlsGrouping_52_Trt01An",
              "groupId": "AnlsGrouping_52_Trt01An_01"
            },
            {
              "groupingId": "AnlsGrouping_53_Param",
              "groupValue": "Anisocytes"
            },
            {
              "groupingId": "AnlsGrouping_55_Aval",
              "groupValue": "Week 2"
            }
          ],
          "rawValue": "9",
          "formattedValue": "9"
        },
        {
          "operationId": "Mth_06_01_n",
          "resultGroups": [
            {
              "groupingId": "AnlsGrouping_52_Trt01An",
              "groupId": "AnlsGrouping_52_Trt01An_01"
            },
            {
              "groupingId": "AnlsGrouping_53_Param",
              "groupValue": "Anisocytes"
            },
            {
              "groupingId": "AnlsGrouping_55_Aval",
              "groupValue": "Week 20"
            }
          ],
          "rawValue": "2",
          "formattedValue": "2"
        },
        {
          "operationId": "Mth_06_01_n",
          "resultGroups": [
            {
              "groupingId": "AnlsGrouping_52_Trt01An",
              "groupId": "AnlsGrouping_52_Trt01An_01"
            },
            {
              "groupingId": "AnlsGrouping_53_Param",
              "groupValue": "Anisocytes"
            },
            {
              "groupingId": "AnlsGrouping_55_Aval",
              "groupValue": "Week 24"
            }
          ],
          "rawValue": "1",
          "formattedValue": "1"
        },
        {
          "operationId": "Mth_06_01_n",
          "resultGroups": [
            {
              "groupingId": "AnlsGrouping_52_Trt01An",
              "groupId": "AnlsGrouping_52_Trt01An_01"
            },
            {
              "groupingId": "AnlsGrouping_53_Param",
              "groupValue": "Anisocytes"
            },
            {
              "groupingId": "AnlsGrouping_55_Aval",
              "groupValue": "Week 26"
            }
          ],
          "rawValue": "4",
          "formattedValue": "4"
        },
        {
          "operationId": "Mth_06_01_n",
          "resultGroups": [
            {
              "groupingId": "AnlsGrouping_52_Trt01An",
              "groupId": "AnlsGrouping_52_Trt01An_01"
            },
            {
              "groupingId": "AnlsGrouping_53_Param",
              "groupValue": "Anisocytes"
            },
            {
              "groupingId": "AnlsGrouping_55_Aval",
              "groupValue": "Week 4"
            }
          ],
          "rawValue": "9",
          "formattedValue": "9"
        },
        {
          "operationId": "Mth_06_01_n",
          "resultGroups": [
            {
              "groupingId": "AnlsGrouping_52_Trt01An",
              "groupId": "AnlsGrouping_52_Trt01An_01"
            },
            {
              "groupingId": "AnlsGrouping_53_Param",
              "groupValue": "Anisocytes"
            },
            {
              "groupingId": "AnlsGrouping_55_Aval",
              "groupValue": "Week 6"
            }
          ],
          "rawValue": "5",
          "formattedValue": "5"
        },
        {
          "operationId": "Mth_06_01_n",
          "resultGroups": [
            {
              "groupingId": "AnlsGrouping_52_Trt01An",
              "groupId": "AnlsGrouping_52_Trt01An_01"
            },
            {
              "groupingId": "AnlsGrouping_53_Param",
              "groupValue": "Anisocytes"
            },
            {
              "groupingId": "AnlsGrouping_55_Aval",
              "groupValue": "Week 8"
            }
          ],
          "rawValue": "2",
          "formattedValue": "2"
        },
        {
          "operationId": "Mth_06_01_n",
          "resultGroups": [
            {
              "groupingId": "AnlsGrouping_52_Trt01An",
              "groupId": "AnlsGrouping_52_Trt01An_01"
            },
            {
              "groupingId": "AnlsGrouping_53_Param",
              "groupValue": "Basophils (GI/L)"
            },
            {
              "groupingId": "AnlsGrouping_55_Aval",
              "groupValue": "End of Treatment"
            }
          ],
          "rawValue": "82",
          "formattedValue": "82"
        },
        {
          "operationId": "Mth_06_01_n",
          "resultGroups": [
            {
              "groupingId": "AnlsGrouping_52_Trt01An",
              "groupId": "AnlsGrouping_52_Trt01An_01"
            },
            {
              "groupingId": "AnlsGrouping_53_Param",
              "groupValue": "Basophils (GI/L)"
            },
            {
              "groupingId": "AnlsGrouping_55_Aval",
              "groupValue": "Week 12"
            }
          ],
          "rawValue": "50",
          "formattedValue": "50"
        },
        {
          "operationId": "Mth_06_01_n",
          "resultGroups": [
            {
              "groupingId": "AnlsGrouping_52_Trt01An",
              "groupId": "AnlsGrouping_52_Trt01An_01"
            },
            {
              "groupingId": "AnlsGrouping_53_Param",
              "groupValue": "Basophils (GI/L)"
            },
            {
              "groupingId": "AnlsGrouping_55_Aval",
              "groupValue": "Week 16"
            }
          ],
          "rawValue": "42",
          "formattedValue": "42"
        },
        {
          "operationId": "Mth_06_01_n",
          "resultGroups": [
            {
              "groupingId": "AnlsGrouping_52_Trt01An",
              "groupId": "AnlsGrouping_52_Trt01An_01"
            },
            {
              "groupingId": "AnlsGrouping_53_Param",
              "groupValue": "Basophils (GI/L)"
            },
            {
              "groupingId": "AnlsGrouping_55_Aval",
              "groupValue": "Week 2"
            }
          ],
          "rawValue": "80",
          "formattedValue": "80"
        },
        {
          "operationId": "Mth_06_01_n",
          "resultGroups": [
            {
              "groupingId": "AnlsGrouping_52_Trt01An",
              "groupId": "AnlsGrouping_52_Trt01An_01"
            },
            {
              "groupingId": "AnlsGrouping_53_Param",
              "groupValue": "Basophils (GI/L)"
            },
            {
              "groupingId": "AnlsGrouping_55_Aval",
              "groupValue": "Week 20"
            }
          ],
          "rawValue": "30",
          "formattedValue": "30"
        },
        {
          "operationId": "Mth_06_01_n",
          "resultGroups": [
            {
              "groupingId": "AnlsGrouping_52_Trt01An",
              "groupId": "AnlsGrouping_52_Trt01An_01"
            },
            {
              "groupingId": "AnlsGrouping_53_Param",
              "groupValue": "Basophils (GI/L)"
            },
            {
              "groupingId": "AnlsGrouping_55_Aval",
              "groupValue": "Week 24"
            }
          ],
          "rawValue": "25",
          "formattedValue": "25"
        },
        {
          "operationId": "Mth_06_01_n",
          "resultGroups": [
            {
              "groupingId": "AnlsGrouping_52_Trt01An",
              "groupId": "AnlsGrouping_52_Trt01An_01"
            },
            {
              "groupingId": "AnlsGrouping_53_Param",
              "groupValue": "Basophils (GI/L)"
            },
            {
              "groupingId": "AnlsGrouping_55_Aval",
              "groupValue": "Week 26"
            }
          ],
          "rawValue": "25",
          "formattedValue": "25"
        },
        {
          "operationId": "Mth_06_01_n",
          "resultGroups": [
            {
              "groupingId": "AnlsGrouping_52_Trt01An",
              "groupId": "AnlsGrouping_52_Trt01An_01"
            },
            {
              "groupingId": "AnlsGrouping_53_Param",
              "groupValue": "Basophils (GI/L)"
            },
            {
              "groupingId": "AnlsGrouping_55_Aval",
              "groupValue": "Week 4"
            }
          ],
          "rawValue": "71",
          "formattedValue": "71"
        },
        {
          "operationId": "Mth_06_01_n",
          "resultGroups": [
            {
              "groupingId": "AnlsGrouping_52_Trt01An",
              "groupId": "AnlsGrouping_52_Trt01An_01"
            },
            {
              "groupingId": "AnlsGrouping_53_Param",
              "groupValue": "Basophils (GI/L)"
            },
            {
              "groupingId": "AnlsGrouping_55_Aval",
              "groupValue": "Week 6"
            }
          ],
          "rawValue": "62",
          "formattedValue": "62"
        },
        {
          "operationId": "Mth_06_01_n",
          "resultGroups": [
            {
              "groupingId": "AnlsGrouping_52_Trt01An",
              "groupId": "AnlsGrouping_52_Trt01An_01"
            },
            {
              "groupingId": "AnlsGrouping_53_Param",
              "groupValue": "Basophils (GI/L)"
            },
            {
              "groupingId": "AnlsGrouping_55_Aval",
              "groupValue": "Week 8"
            }
          ],
          "rawValue": "59",
          "formattedValue": "59"
        },
        {
          "operationId": "Mth_06_01_n",
          "resultGroups": [
            {
              "groupingId": "AnlsGrouping_52_Trt01An",
              "groupId": "AnlsGrouping_52_Trt01An_01"
            },
            {
              "groupingId": "AnlsGrouping_53_Param",
              "groupValue": "Eosinophils (GI/L)"
            },
            {
              "groupingId": "AnlsGrouping_55_Aval",
              "groupValue": "End of Treatment"
            }
          ],
          "rawValue": "82",
          "formattedValue": "82"
        },
        {
          "operationId": "Mth_06_01_n",
          "resultGroups": [
            {
              "groupingId": "AnlsGrouping_52_Trt01An",
              "groupId": "AnlsGrouping_52_Trt01An_01"
            },
            {
              "groupingId": "AnlsGrouping_53_Param",
              "groupValue": "Eosinophils (GI/L)"
            },
            {
              "groupingId": "AnlsGrouping_55_Aval",
              "groupValue": "Week 12"
            }
          ],
          "rawValue": "50",
          "formattedValue": "50"
        },
        {
          "operationId": "Mth_06_01_n",
          "resultGroups": [
            {
              "groupingId": "AnlsGrouping_52_Trt01An",
              "groupId": "AnlsGrouping_52_Trt01An_01"
            },
            {
              "groupingId": "AnlsGrouping_53_Param",
              "groupValue": "Eosinophils (GI/L)"
            },
            {
              "groupingId": "AnlsGrouping_55_Aval",
              "groupValue": "Week 16"
            }
          ],
          "rawValue": "42",
          "formattedValue": "42"
        },
        {
          "operationId": "Mth_06_01_n",
          "resultGroups": [
            {
              "groupingId": "AnlsGrouping_52_Trt01An",
              "groupId": "AnlsGrouping_52_Trt01An_01"
            },
            {
              "groupingId": "AnlsGrouping_53_Param",
              "groupValue": "Eosinophils (GI/L)"
            },
            {
              "groupingId": "AnlsGrouping_55_Aval",
              "groupValue": "Week 2"
            }
          ],
          "rawValue": "80",
          "formattedValue": "80"
        },
        {
          "operationId": "Mth_06_01_n",
          "resultGroups": [
            {
              "groupingId": "AnlsGrouping_52_Trt01An",
              "groupId": "AnlsGrouping_52_Trt01An_01"
            },
            {
              "groupingId": "AnlsGrouping_53_Param",
              "groupValue": "Eosinophils (GI/L)"
            },
            {
              "groupingId": "AnlsGrouping_55_Aval",
              "groupValue": "Week 20"
            }
          ],
          "rawValue": "30",
          "formattedValue": "30"
        },
        {
          "operationId": "Mth_06_01_n",
          "resultGroups": [
            {
              "groupingId": "AnlsGrouping_52_Trt01An",
              "groupId": "AnlsGrouping_52_Trt01An_01"
            },
            {
              "groupingId": "AnlsGrouping_53_Param",
              "groupValue": "Eosinophils (GI/L)"
            },
            {
              "groupingId": "AnlsGrouping_55_Aval",
              "groupValue": "Week 24"
            }
          ],
          "rawValue": "25",
          "formattedValue": "25"
        },
        {
          "operationId": "Mth_06_01_n",
          "resultGroups": [
            {
              "groupingId": "AnlsGrouping_52_Trt01An",
              "groupId": "AnlsGrouping_52_Trt01An_01"
            },
            {
              "groupingId": "AnlsGrouping_53_Param",
              "groupValue": "Eosinophils (GI/L)"
            },
            {
              "groupingId": "AnlsGrouping_55_Aval",
              "groupValue": "Week 26"
            }
          ],
          "rawValue": "25",
          "formattedValue": "25"
        },
        {
          "operationId": "Mth_06_01_n",
          "resultGroups": [
            {
              "groupingId": "AnlsGrouping_52_Trt01An",
              "groupId": "AnlsGrouping_52_Trt01An_01"
            },
            {
              "groupingId": "AnlsGrouping_53_Param",
              "groupValue": "Eosinophils (GI/L)"
            },
            {
              "groupingId": "AnlsGrouping_55_Aval",
              "groupValue": "Week 4"
            }
          ],
          "rawValue": "71",
          "formattedValue": "71"
        },
        {
          "operationId": "Mth_06_01_n",
          "resultGroups": [
            {
              "groupingId": "AnlsGrouping_52_Trt01An",
              "groupId": "AnlsGrouping_52_Trt01An_01"
            },
            {
              "groupingId": "AnlsGrouping_53_Param",
              "groupValue": "Eosinophils (GI/L)"
            },
            {
              "groupingId": "AnlsGrouping_55_Aval",
              "groupValue": "Week 6"
            }
          ],
          "rawValue": "62",
          "formattedValue": "62"
        },
        {
          "operationId": "Mth_06_01_n",
          "resultGroups": [
            {
              "groupingId": "AnlsGrouping_52_Trt01An",
              "groupId": "AnlsGrouping_52_Trt01An_01"
            },
            {
              "groupingId": "AnlsGrouping_53_Param",
              "groupValue": "Eosinophils (GI/L)"
            },
            {
              "groupingId": "AnlsGrouping_55_Aval",
              "groupValue": "Week 8"
            }
          ],
          "rawValue": "59",
          "formattedValue": "59"
        },
        {
          "operationId": "Mth_06_01_n",
          "resultGroups": [
            {
              "groupingId": "AnlsGrouping_52_Trt01An",
              "groupId": "AnlsGrouping_52_Trt01An_01"
            },
            {
              "groupingId": "AnlsGrouping_53_Param",
              "groupValue": "Ery. Mean Corpuscular HGB Concentration (mmol/L)"
            },
            {
              "groupingId": "AnlsGrouping_55_Aval",
              "groupValue": "End of Treatment"
            }
          ],
          "rawValue": "82",
          "formattedValue": "82"
        },
        {
          "operationId": "Mth_06_01_n",
          "resultGroups": [
            {
              "groupingId": "AnlsGrouping_52_Trt01An",
              "groupId": "AnlsGrouping_52_Trt01An_01"
            },
            {
              "groupingId": "AnlsGrouping_53_Param",
              "groupValue": "Ery. Mean Corpuscular HGB Concentration (mmol/L)"
            },
            {
              "groupingId": "AnlsGrouping_55_Aval",
              "groupValue": "Week 12"
            }
          ],
          "rawValue": "49",
          "formattedValue": "49"
        },
        {
          "operationId": "Mth_06_01_n",
          "resultGroups": [
            {
              "groupingId": "AnlsGrouping_52_Trt01An",
              "groupId": "AnlsGrouping_52_Trt01An_01"
            },
            {
              "groupingId": "AnlsGrouping_53_Param",
              "groupValue": "Ery. Mean Corpuscular HGB Concentration (mmol/L)"
            },
            {
              "groupingId": "AnlsGrouping_55_Aval",
              "groupValue": "Week 16"
            }
          ],
          "rawValue": "42",
          "formattedValue": "42"
        },
        {
          "operationId": "Mth_06_01_n",
          "resultGroups": [
            {
              "groupingId": "AnlsGrouping_52_Trt01An",
              "groupId": "AnlsGrouping_52_Trt01An_01"
            },
            {
              "groupingId": "AnlsGrouping_53_Param",
              "groupValue": "Ery. Mean Corpuscular HGB Concentration (mmol/L)"
            },
            {
              "groupingId": "AnlsGrouping_55_Aval",
              "groupValue": "Week 2"
            }
          ],
          "rawValue": "80",
          "formattedValue": "80"
        },
        {
          "operationId": "Mth_06_01_n",
          "resultGroups": [
            {
              "groupingId": "AnlsGrouping_52_Trt01An",
              "groupId": "AnlsGrouping_52_Trt01An_01"
            },
            {
              "groupingId": "AnlsGrouping_53_Param",
              "groupValue": "Ery. Mean Corpuscular HGB Concentration (mmol/L)"
            },
            {
              "groupingId": "AnlsGrouping_55_Aval",
              "groupValue": "Week 20"
            }
          ],
          "rawValue": "30",
          "formattedValue": "30"
        },
        {
          "operationId": "Mth_06_01_n",
          "resultGroups": [
            {
              "groupingId": "AnlsGrouping_52_Trt01An",
              "groupId": "AnlsGrouping_52_Trt01An_01"
            },
            {
              "groupingId": "AnlsGrouping_53_Param",
              "groupValue": "Ery. Mean Corpuscular HGB Concentration (mmol/L)"
            },
            {
              "groupingId": "AnlsGrouping_55_Aval",
              "groupValue": "Week 24"
            }
          ],
          "rawValue": "25",
          "formattedValue": "25"
        },
        {
          "operationId": "Mth_06_01_n",
          "resultGroups": [
            {
              "groupingId": "AnlsGrouping_52_Trt01An",
              "groupId": "AnlsGrouping_52_Trt01An_01"
            },
            {
              "groupingId": "AnlsGrouping_53_Param",
              "groupValue": "Ery. Mean Corpuscular HGB Concentration (mmol/L)"
            },
            {
              "groupingId": "AnlsGrouping_55_Aval",
              "groupValue": "Week 26"
            }
          ],
          "rawValue": "25",
          "formattedValue": "25"
        },
        {
          "operationId": "Mth_06_01_n",
          "resultGroups": [
            {
              "groupingId": "AnlsGrouping_52_Trt01An",
              "groupId": "AnlsGrouping_52_Trt01An_01"
            },
            {
              "groupingId": "AnlsGrouping_53_Param",
              "groupValue": "Ery. Mean Corpuscular HGB Concentration (mmol/L)"
            },
            {
              "groupingId": "AnlsGrouping_55_Aval",
              "groupValue": "Week 4"
            }
          ],
          "rawValue": "69",
          "formattedValue": "69"
        },
        {
          "operationId": "Mth_06_01_n",
          "resultGroups": [
            {
              "groupingId": "AnlsGrouping_52_Trt01An",
              "groupId": "AnlsGrouping_52_Trt01An_01"
            },
            {
              "groupingId": "AnlsGrouping_53_Param",
              "groupValue": "Ery. Mean Corpuscular HGB Concentration (mmol/L)"
            },
            {
              "groupingId": "AnlsGrouping_55_Aval",
              "groupValue": "Week 6"
            }
          ],
          "rawValue": "60",
          "formattedValue": "60"
        },
        {
          "operationId": "Mth_06_01_n",
          "resultGroups": [
            {
              "groupingId": "AnlsGrouping_52_Trt01An",
              "groupId": "AnlsGrouping_52_Trt01An_01"
            },
            {
              "groupingId": "AnlsGrouping_53_Param",
              "groupValue": "Ery. Mean Corpuscular HGB Concentration (mmol/L)"
            },
            {
              "groupingId": "AnlsGrouping_55_Aval",
              "groupValue": "Week 8"
            }
          ],
          "rawValue": "56",
          "formattedValue": "56"
        },
        {
          "operationId": "Mth_06_01_n",
          "resultGroups": [
            {
              "groupingId": "AnlsGrouping_52_Trt01An",
              "groupId": "AnlsGrouping_52_Trt01An_01"
            },
            {
              "groupingId": "AnlsGrouping_53_Param",
              "groupValue": "Ery. Mean Corpuscular Hemoglobin (fmol(Fe))"
            },
            {
              "groupingId": "AnlsGrouping_55_Aval",
              "groupValue": "End of Treatment"
            }
          ],
          "rawValue": "82",
          "formattedValue": "82"
        },
        {
          "operationId": "Mth_06_01_n",
          "resultGroups": [
            {
              "groupingId": "AnlsGrouping_52_Trt01An",
              "groupId": "AnlsGrouping_52_Trt01An_01"
            },
            {
              "groupingId": "AnlsGrouping_53_Param",
              "groupValue": "Ery. Mean Corpuscular Hemoglobin (fmol(Fe))"
            },
            {
              "groupingId": "AnlsGrouping_55_Aval",
              "groupValue": "Week 12"
            }
          ],
          "rawValue": "50",
          "formattedValue": "50"
        },
        {
          "operationId": "Mth_06_01_n",
          "resultGroups": [
            {
              "groupingId": "AnlsGrouping_52_Trt01An",
              "groupId": "AnlsGrouping_52_Trt01An_01"
            },
            {
              "groupingId": "AnlsGrouping_53_Param",
              "groupValue": "Ery. Mean Corpuscular Hemoglobin (fmol(Fe))"
            },
            {
              "groupingId": "AnlsGrouping_55_Aval",
              "groupValue": "Week 16"
            }
          ],
          "rawValue": "42",
          "formattedValue": "42"
        },
        {
          "operationId": "Mth_06_01_n",
          "resultGroups": [
            {
              "groupingId": "AnlsGrouping_52_Trt01An",
              "groupId": "AnlsGrouping_52_Trt01An_01"
            },
            {
              "groupingId": "AnlsGrouping_53_Param",
              "groupValue": "Ery. Mean Corpuscular Hemoglobin (fmol(Fe))"
            },
            {
              "groupingId": "AnlsGrouping_55_Aval",
              "groupValue": "Week 2"
            }
          ],
          "rawValue": "80",
          "formattedValue": "80"
        },
        {
          "operationId": "Mth_06_01_n",
          "resultGroups": [
            {
              "groupingId": "AnlsGrouping_52_Trt01An",
              "groupId": "AnlsGrouping_52_Trt01An_01"
            },
            {
              "groupingId": "AnlsGrouping_53_Param",
              "groupValue": "Ery. Mean Corpuscular Hemoglobin (fmol(Fe))"
            },
            {
              "groupingId": "AnlsGrouping_55_Aval",
              "groupValue": "Week 20"
            }
          ],
          "rawValue": "30",
          "formattedValue": "30"
        },
        {
          "operationId": "Mth_06_01_n",
          "resultGroups": [
            {
              "groupingId": "AnlsGrouping_52_Trt01An",
              "groupId": "AnlsGrouping_52_Trt01An_01"
            },
            {
              "groupingId": "AnlsGrouping_53_Param",
              "groupValue": "Ery. Mean Corpuscular Hemoglobin (fmol(Fe))"
            },
            {
              "groupingId": "AnlsGrouping_55_Aval",
              "groupValue": "Week 24"
            }
          ],
          "rawValue": "25",
          "formattedValue": "25"
        },
        {
          "operationId": "Mth_06_01_n",
          "resultGroups": [
            {
              "groupingId": "AnlsGrouping_52_Trt01An",
              "groupId": "AnlsGrouping_52_Trt01An_01"
            },
            {
              "groupingId": "AnlsGrouping_53_Param",
              "groupValue": "Ery. Mean Corpuscular Hemoglobin (fmol(Fe))"
            },
            {
              "groupingId": "AnlsGrouping_55_Aval",
              "groupValue": "Week 26"
            }
          ],
          "rawValue": "25",
          "formattedValue": "25"
        },
        {
          "operationId": "Mth_06_01_n",
          "resultGroups": [
            {
              "groupingId": "AnlsGrouping_52_Trt01An",
              "groupId": "AnlsGrouping_52_Trt01An_01"
            },
            {
              "groupingId": "AnlsGrouping_53_Param",
              "groupValue": "Ery. Mean Corpuscular Hemoglobin (fmol(Fe))"
            },
            {
              "groupingId": "AnlsGrouping_55_Aval",
              "groupValue": "Week 4"
            }
          ],
          "rawValue": "71",
          "formattedValue": "71"
        },
        {
          "operationId": "Mth_06_01_n",
          "resultGroups": [
            {
              "groupingId": "AnlsGrouping_52_Trt01An",
              "groupId": "AnlsGrouping_52_Trt01An_01"
            },
            {
              "groupingId": "AnlsGrouping_53_Param",
              "groupValue": "Ery. Mean Corpuscular Hemoglobin (fmol(Fe))"
            },
            {
              "groupingId": "AnlsGrouping_55_Aval",
              "groupValue": "Week 6"
            }
          ],
          "rawValue": "62",
          "formattedValue": "62"
        },
        {
          "operationId": "Mth_06_01_n",
          "resultGroups": [
            {
              "groupingId": "AnlsGrouping_52_Trt01An",
              "groupId": "AnlsGrouping_52_Trt01An_01"
            },
            {
              "groupingId": "AnlsGrouping_53_Param",
              "groupValue": "Ery. Mean Corpuscular Hemoglobin (fmol(Fe))"
            },
            {
              "groupingId": "AnlsGrouping_55_Aval",
              "groupValue": "Week 8"
            }
          ],
          "rawValue": "59",
          "formattedValue": "59"
        },
        {
          "operationId": "Mth_06_01_n",
          "resultGroups": [
            {
              "groupingId": "AnlsGrouping_52_Trt01An",
              "groupId": "AnlsGrouping_52_Trt01An_01"
            },
            {
              "groupingId": "AnlsGrouping_53_Param",
              "groupValue": "Ery. Mean Corpuscular Volume (fL)"
            },
            {
              "groupingId": "AnlsGrouping_55_Aval",
              "groupValue": "End of Treatment"
            }
          ],
          "rawValue": "82",
          "formattedValue": "82"
        },
        {
          "operationId": "Mth_06_01_n",
          "resultGroups": [
            {
              "groupingId": "AnlsGrouping_52_Trt01An",
              "groupId": "AnlsGrouping_52_Trt01An_01"
            },
            {
              "groupingId": "AnlsGrouping_53_Param",
              "groupValue": "Ery. Mean Corpuscular Volume (fL)"
            },
            {
              "groupingId": "AnlsGrouping_55_Aval",
              "groupValue": "Week 12"
            }
          ],
          "rawValue": "49",
          "formattedValue": "49"
        },
        {
          "operationId": "Mth_06_01_n",
          "resultGroups": [
            {
              "groupingId": "AnlsGrouping_52_Trt01An",
              "groupId": "AnlsGrouping_52_Trt01An_01"
            },
            {
              "groupingId": "AnlsGrouping_53_Param",
              "groupValue": "Ery. Mean Corpuscular Volume (fL)"
            },
            {
              "groupingId": "AnlsGrouping_55_Aval",
              "groupValue": "Week 16"
            }
          ],
          "rawValue": "42",
          "formattedValue": "42"
        },
        {
          "operationId": "Mth_06_01_n",
          "resultGroups": [
            {
              "groupingId": "AnlsGrouping_52_Trt01An",
              "groupId": "AnlsGrouping_52_Trt01An_01"
            },
            {
              "groupingId": "AnlsGrouping_53_Param",
              "groupValue": "Ery. Mean Corpuscular Volume (fL)"
            },
            {
              "groupingId": "AnlsGrouping_55_Aval",
              "groupValue": "Week 2"
            }
          ],
          "rawValue": "80",
          "formattedValue": "80"
        },
        {
          "operationId": "Mth_06_01_n",
          "resultGroups": [
            {
              "groupingId": "AnlsGrouping_52_Trt01An",
              "groupId": "AnlsGrouping_52_Trt01An_01"
            },
            {
              "groupingId": "AnlsGrouping_53_Param",
              "groupValue": "Ery. Mean Corpuscular Volume (fL)"
            },
            {
              "groupingId": "AnlsGrouping_55_Aval",
              "groupValue": "Week 20"
            }
          ],
          "rawValue": "30",
          "formattedValue": "30"
        },
        {
          "operationId": "Mth_06_01_n",
          "resultGroups": [
            {
              "groupingId": "AnlsGrouping_52_Trt01An",
              "groupId": "AnlsGrouping_52_Trt01An_01"
            },
            {
              "groupingId": "AnlsGrouping_53_Param",
              "groupValue": "Ery. Mean Corpuscular Volume (fL)"
            },
            {
              "groupingId": "AnlsGrouping_55_Aval",
              "groupValue": "Week 24"
            }
          ],
          "rawValue": "25",
          "formattedValue": "25"
        },
        {
          "operationId": "Mth_06_01_n",
          "resultGroups": [
            {
              "groupingId": "AnlsGrouping_52_Trt01An",
              "groupId": "AnlsGrouping_52_Trt01An_01"
            },
            {
              "groupingId": "AnlsGrouping_53_Param",
              "groupValue": "Ery. Mean Corpuscular Volume (fL)"
            },
            {
              "groupingId": "AnlsGrouping_55_Aval",
              "groupValue": "Week 26"
            }
          ],
          "rawValue": "25",
          "formattedValue": "25"
        },
        {
          "operationId": "Mth_06_01_n",
          "resultGroups": [
            {
              "groupingId": "AnlsGrouping_52_Trt01An",
              "groupId": "AnlsGrouping_52_Trt01An_01"
            },
            {
              "groupingId": "AnlsGrouping_53_Param",
              "groupValue": "Ery. Mean Corpuscular Volume (fL)"
            },
            {
              "groupingId": "AnlsGrouping_55_Aval",
              "groupValue": "Week 4"
            }
          ],
          "rawValue": "69",
          "formattedValue": "69"
        },
        {
          "operationId": "Mth_06_01_n",
          "resultGroups": [
            {
              "groupingId": "AnlsGrouping_52_Trt01An",
              "groupId": "AnlsGrouping_52_Trt01An_01"
            },
            {
              "groupingId": "AnlsGrouping_53_Param",
              "groupValue": "Ery. Mean Corpuscular Volume (fL)"
            },
            {
              "groupingId": "AnlsGrouping_55_Aval",
              "groupValue": "Week 6"
            }
          ],
          "rawValue": "60",
          "formattedValue": "60"
        },
        {
          "operationId": "Mth_06_01_n",
          "resultGroups": [
            {
              "groupingId": "AnlsGrouping_52_Trt01An",
              "groupId": "AnlsGrouping_52_Trt01An_01"
            },
            {
              "groupingId": "AnlsGrouping_53_Param",
              "groupValue": "Ery. Mean Corpuscular Volume (fL)"
            },
            {
              "groupingId": "AnlsGrouping_55_Aval",
              "groupValue": "Week 8"
            }
          ],
          "rawValue": "56",
          "formattedValue": "56"
        },
        {
          "operationId": "Mth_06_01_n",
          "resultGroups": [
            {
              "groupingId": "AnlsGrouping_52_Trt01An",
              "groupId": "AnlsGrouping_52_Trt01An_01"
            },
            {
              "groupingId": "AnlsGrouping_53_Param",
              "groupValue": "Erythrocytes (TI/L)"
            },
            {
              "groupingId": "AnlsGrouping_55_Aval",
              "groupValue": "End of Treatment"
            }
          ],
          "rawValue": "82",
          "formattedValue": "82"
        },
        {
          "operationId": "Mth_06_01_n",
          "resultGroups": [
            {
              "groupingId": "AnlsGrouping_52_Trt01An",
              "groupId": "AnlsGrouping_52_Trt01An_01"
            },
            {
              "groupingId": "AnlsGrouping_53_Param",
              "groupValue": "Erythrocytes (TI/L)"
            },
            {
              "groupingId": "AnlsGrouping_55_Aval",
              "groupValue": "Week 12"
            }
          ],
          "rawValue": "50",
          "formattedValue": "50"
        },
        {
          "operationId": "Mth_06_01_n",
          "resultGroups": [
            {
              "groupingId": "AnlsGrouping_52_Trt01An",
              "groupId": "AnlsGrouping_52_Trt01An_01"
            },
            {
              "groupingId": "AnlsGrouping_53_Param",
              "groupValue": "Erythrocytes (TI/L)"
            },
            {
              "groupingId": "AnlsGrouping_55_Aval",
              "groupValue": "Week 16"
            }
          ],
          "rawValue": "42",
          "formattedValue": "42"
        },
        {
          "operationId": "Mth_06_01_n",
          "resultGroups": [
            {
              "groupingId": "AnlsGrouping_52_Trt01An",
              "groupId": "AnlsGrouping_52_Trt01An_01"
            },
            {
              "groupingId": "AnlsGrouping_53_Param",
              "groupValue": "Erythrocytes (TI/L)"
            },
            {
              "groupingId": "AnlsGrouping_55_Aval",
              "groupValue": "Week 2"
            }
          ],
          "rawValue": "80",
          "formattedValue": "80"
        },
        {
          "operationId": "Mth_06_01_n",
          "resultGroups": [
            {
              "groupingId": "AnlsGrouping_52_Trt01An",
              "groupId": "AnlsGrouping_52_Trt01An_01"
            },
            {
              "groupingId": "AnlsGrouping_53_Param",
              "groupValue": "Erythrocytes (TI/L)"
            },
            {
              "groupingId": "AnlsGrouping_55_Aval",
              "groupValue": "Week 20"
            }
          ],
          "rawValue": "30",
          "formattedValue": "30"
        },
        {
          "operationId": "Mth_06_01_n",
          "resultGroups": [
            {
              "groupingId": "AnlsGrouping_52_Trt01An",
              "groupId": "AnlsGrouping_52_Trt01An_01"
            },
            {
              "groupingId": "AnlsGrouping_53_Param",
              "groupValue": "Erythrocytes (TI/L)"
            },
            {
              "groupingId": "AnlsGrouping_55_Aval",
              "groupValue": "Week 24"
            }
          ],
          "rawValue": "25",
          "formattedValue": "25"
        },
        {
          "operationId": "Mth_06_01_n",
          "resultGroups": [
            {
              "groupingId": "AnlsGrouping_52_Trt01An",
              "groupId": "AnlsGrouping_52_Trt01An_01"
            },
            {
              "groupingId": "AnlsGrouping_53_Param",
              "groupValue": "Erythrocytes (TI/L)"
            },
            {
              "groupingId": "AnlsGrouping_55_Aval",
              "groupValue": "Week 26"
            }
          ],
          "rawValue": "25",
          "formattedValue": "25"
        },
        {
          "operationId": "Mth_06_01_n",
          "resultGroups": [
            {
              "groupingId": "AnlsGrouping_52_Trt01An",
              "groupId": "AnlsGrouping_52_Trt01An_01"
            },
            {
              "groupingId": "AnlsGrouping_53_Param",
              "groupValue": "Erythrocytes (TI/L)"
            },
            {
              "groupingId": "AnlsGrouping_55_Aval",
              "groupValue": "Week 4"
            }
          ],
          "rawValue": "71",
          "formattedValue": "71"
        },
        {
          "operationId": "Mth_06_01_n",
          "resultGroups": [
            {
              "groupingId": "AnlsGrouping_52_Trt01An",
              "groupId": "AnlsGrouping_52_Trt01An_01"
            },
            {
              "groupingId": "AnlsGrouping_53_Param",
              "groupValue": "Erythrocytes (TI/L)"
            },
            {
              "groupingId": "AnlsGrouping_55_Aval",
              "groupValue": "Week 6"
            }
          ],
          "rawValue": "62",
          "formattedValue": "62"
        },
        {
          "operationId": "Mth_06_01_n",
          "resultGroups": [
            {
              "groupingId": "AnlsGrouping_52_Trt01An",
              "groupId": "AnlsGrouping_52_Trt01An_01"
            },
            {
              "groupingId": "AnlsGrouping_53_Param",
              "groupValue": "Erythrocytes (TI/L)"
            },
            {
              "groupingId": "AnlsGrouping_55_Aval",
              "groupValue": "Week 8"
            }
          ],
          "rawValue": "59",
          "formattedValue": "59"
        },
        {
          "operationId": "Mth_06_01_n",
          "resultGroups": [
            {
              "groupingId": "AnlsGrouping_52_Trt01An",
              "groupId": "AnlsGrouping_52_Trt01An_01"
            },
            {
              "groupingId": "AnlsGrouping_53_Param",
              "groupValue": "Hematocrit"
            },
            {
              "groupingId": "AnlsGrouping_55_Aval",
              "groupValue": "End of Treatment"
            }
          ],
          "rawValue": "82",
          "formattedValue": "82"
        },
        {
          "operationId": "Mth_06_01_n",
          "resultGroups": [
            {
              "groupingId": "AnlsGrouping_52_Trt01An",
              "groupId": "AnlsGrouping_52_Trt01An_01"
            },
            {
              "groupingId": "AnlsGrouping_53_Param",
              "groupValue": "Hematocrit"
            },
            {
              "groupingId": "AnlsGrouping_55_Aval",
              "groupValue": "Week 12"
            }
          ],
          "rawValue": "49",
          "formattedValue": "49"
        },
        {
          "operationId": "Mth_06_01_n",
          "resultGroups": [
            {
              "groupingId": "AnlsGrouping_52_Trt01An",
              "groupId": "AnlsGrouping_52_Trt01An_01"
            },
            {
              "groupingId": "AnlsGrouping_53_Param",
              "groupValue": "Hematocrit"
            },
            {
              "groupingId": "AnlsGrouping_55_Aval",
              "groupValue": "Week 16"
            }
          ],
          "rawValue": "42",
          "formattedValue": "42"
        },
        {
          "operationId": "Mth_06_01_n",
          "resultGroups": [
            {
              "groupingId": "AnlsGrouping_52_Trt01An",
              "groupId": "AnlsGrouping_52_Trt01An_01"
            },
            {
              "groupingId": "AnlsGrouping_53_Param",
              "groupValue": "Hematocrit"
            },
            {
              "groupingId": "AnlsGrouping_55_Aval",
              "groupValue": "Week 2"
            }
          ],
          "rawValue": "80",
          "formattedValue": "80"
        },
        {
          "operationId": "Mth_06_01_n",
          "resultGroups": [
            {
              "groupingId": "AnlsGrouping_52_Trt01An",
              "groupId": "AnlsGrouping_52_Trt01An_01"
            },
            {
              "groupingId": "AnlsGrouping_53_Param",
              "groupValue": "Hematocrit"
            },
            {
              "groupingId": "AnlsGrouping_55_Aval",
              "groupValue": "Week 20"
            }
          ],
          "rawValue": "30",
          "formattedValue": "30"
        },
        {
          "operationId": "Mth_06_01_n",
          "resultGroups": [
            {
              "groupingId": "AnlsGrouping_52_Trt01An",
              "groupId": "AnlsGrouping_52_Trt01An_01"
            },
            {
              "groupingId": "AnlsGrouping_53_Param",
              "groupValue": "Hematocrit"
            },
            {
              "groupingId": "AnlsGrouping_55_Aval",
              "groupValue": "Week 24"
            }
          ],
          "rawValue": "25",
          "formattedValue": "25"
        },
        {
          "operationId": "Mth_06_01_n",
          "resultGroups": [
            {
              "groupingId": "AnlsGrouping_52_Trt01An",
              "groupId": "AnlsGrouping_52_Trt01An_01"
            },
            {
              "groupingId": "AnlsGrouping_53_Param",
              "groupValue": "Hematocrit"
            },
            {
              "groupingId": "AnlsGrouping_55_Aval",
              "groupValue": "Week 26"
            }
          ],
          "rawValue": "25",
          "formattedValue": "25"
        },
        {
          "operationId": "Mth_06_01_n",
          "resultGroups": [
            {
              "groupingId": "AnlsGrouping_52_Trt01An",
              "groupId": "AnlsGrouping_52_Trt01An_01"
            },
            {
              "groupingId": "AnlsGrouping_53_Param",
              "groupValue": "Hematocrit"
            },
            {
              "groupingId": "AnlsGrouping_55_Aval",
              "groupValue": "Week 4"
            }
          ],
          "rawValue": "69",
          "formattedValue": "69"
        },
        {
          "operationId": "Mth_06_01_n",
          "resultGroups": [
            {
              "groupingId": "AnlsGrouping_52_Trt01An",
              "groupId": "AnlsGrouping_52_Trt01An_01"
            },
            {
              "groupingId": "AnlsGrouping_53_Param",
              "groupValue": "Hematocrit"
            },
            {
              "groupingId": "AnlsGrouping_55_Aval",
              "groupValue": "Week 6"
            }
          ],
          "rawValue": "60",
          "formattedValue": "60"
        },
        {
          "operationId": "Mth_06_01_n",
          "resultGroups": [
            {
              "groupingId": "AnlsGrouping_52_Trt01An",
              "groupId": "AnlsGrouping_52_Trt01An_01"
            },
            {
              "groupingId": "AnlsGrouping_53_Param",
              "groupValue": "Hematocrit"
            },
            {
              "groupingId": "AnlsGrouping_55_Aval",
              "groupValue": "Week 8"
            }
          ],
          "rawValue": "56",
          "formattedValue": "56"
        },
        {
          "operationId": "Mth_06_01_n",
          "resultGroups": [
            {
              "groupingId": "AnlsGrouping_52_Trt01An",
              "groupId": "AnlsGrouping_52_Trt01An_01"
            },
            {
              "groupingId": "AnlsGrouping_53_Param",
              "groupValue": "Hemoglobin (mmol/L)"
            },
            {
              "groupingId": "AnlsGrouping_55_Aval",
              "groupValue": "End of Treatment"
            }
          ],
          "rawValue": "82",
          "formattedValue": "82"
        },
        {
          "operationId": "Mth_06_01_n",
          "resultGroups": [
            {
              "groupingId": "AnlsGrouping_52_Trt01An",
              "groupId": "AnlsGrouping_52_Trt01An_01"
            },
            {
              "groupingId": "AnlsGrouping_53_Param",
              "groupValue": "Hemoglobin (mmol/L)"
            },
            {
              "groupingId": "AnlsGrouping_55_Aval",
              "groupValue": "Week 12"
            }
          ],
          "rawValue": "50",
          "formattedValue": "50"
        },
        {
          "operationId": "Mth_06_01_n",
          "resultGroups": [
            {
              "groupingId": "AnlsGrouping_52_Trt01An",
              "groupId": "AnlsGrouping_52_Trt01An_01"
            },
            {
              "groupingId": "AnlsGrouping_53_Param",
              "groupValue": "Hemoglobin (mmol/L)"
            },
            {
              "groupingId": "AnlsGrouping_55_Aval",
              "groupValue": "Week 16"
            }
          ],
          "rawValue": "42",
          "formattedValue": "42"
        },
        {
          "operationId": "Mth_06_01_n",
          "resultGroups": [
            {
              "groupingId": "AnlsGrouping_52_Trt01An",
              "groupId": "AnlsGrouping_52_Trt01An_01"
            },
            {
              "groupingId": "AnlsGrouping_53_Param",
              "groupValue": "Hemoglobin (mmol/L)"
            },
            {
              "groupingId": "AnlsGrouping_55_Aval",
              "groupValue": "Week 2"
            }
          ],
          "rawValue": "80",
          "formattedValue": "80"
        },
        {
          "operationId": "Mth_06_01_n",
          "resultGroups": [
            {
              "groupingId": "AnlsGrouping_52_Trt01An",
              "groupId": "AnlsGrouping_52_Trt01An_01"
            },
            {
              "groupingId": "AnlsGrouping_53_Param",
              "groupValue": "Hemoglobin (mmol/L)"
            },
            {
              "groupingId": "AnlsGrouping_55_Aval",
              "groupValue": "Week 20"
            }
          ],
          "rawValue": "30",
          "formattedValue": "30"
        },
        {
          "operationId": "Mth_06_01_n",
          "resultGroups": [
            {
              "groupingId": "AnlsGrouping_52_Trt01An",
              "groupId": "AnlsGrouping_52_Trt01An_01"
            },
            {
              "groupingId": "AnlsGrouping_53_Param",
              "groupValue": "Hemoglobin (mmol/L)"
            },
            {
              "groupingId": "AnlsGrouping_55_Aval",
              "groupValue": "Week 24"
            }
          ],
          "rawValue": "25",
          "formattedValue": "25"
        },
        {
          "operationId": "Mth_06_01_n",
          "resultGroups": [
            {
              "groupingId": "AnlsGrouping_52_Trt01An",
              "groupId": "AnlsGrouping_52_Trt01An_01"
            },
            {
              "groupingId": "AnlsGrouping_53_Param",
              "groupValue": "Hemoglobin (mmol/L)"
            },
            {
              "groupingId": "AnlsGrouping_55_Aval",
              "groupValue": "Week 26"
            }
          ],
          "rawValue": "25",
          "formattedValue": "25"
        },
        {
          "operationId": "Mth_06_01_n",
          "resultGroups": [
            {
              "groupingId": "AnlsGrouping_52_Trt01An",
              "groupId": "AnlsGrouping_52_Trt01An_01"
            },
            {
              "groupingId": "AnlsGrouping_53_Param",
              "groupValue": "Hemoglobin (mmol/L)"
            },
            {
              "groupingId": "AnlsGrouping_55_Aval",
              "groupValue": "Week 4"
            }
          ],
          "rawValue": "71",
          "formattedValue": "71"
        },
        {
          "operationId": "Mth_06_01_n",
          "resultGroups": [
            {
              "groupingId": "AnlsGrouping_52_Trt01An",
              "groupId": "AnlsGrouping_52_Trt01An_01"
            },
            {
              "groupingId": "AnlsGrouping_53_Param",
              "groupValue": "Hemoglobin (mmol/L)"
            },
            {
              "groupingId": "AnlsGrouping_55_Aval",
              "groupValue": "Week 6"
            }
          ],
          "rawValue": "62",
          "formattedValue": "62"
        },
        {
          "operationId": "Mth_06_01_n",
          "resultGroups": [
            {
              "groupingId": "AnlsGrouping_52_Trt01An",
              "groupId": "AnlsGrouping_52_Trt01An_01"
            },
            {
              "groupingId": "AnlsGrouping_53_Param",
              "groupValue": "Hemoglobin (mmol/L)"
            },
            {
              "groupingId": "AnlsGrouping_55_Aval",
              "groupValue": "Week 8"
            }
          ],
          "rawValue": "59",
          "formattedValue": "59"
        },
        {
          "operationId": "Mth_06_01_n",
          "resultGroups": [
            {
              "groupingId": "AnlsGrouping_52_Trt01An",
              "groupId": "AnlsGrouping_52_Trt01An_01"
            },
            {
              "groupingId": "AnlsGrouping_53_Param",
              "groupValue": "Leukocytes (GI/L)"
            },
            {
              "groupingId": "AnlsGrouping_55_Aval",
              "groupValue": "End of Treatment"
            }
          ],
          "rawValue": "82",
          "formattedValue": "82"
        },
        {
          "operationId": "Mth_06_01_n",
          "resultGroups": [
            {
              "groupingId": "AnlsGrouping_52_Trt01An",
              "groupId": "AnlsGrouping_52_Trt01An_01"
            },
            {
              "groupingId": "AnlsGrouping_53_Param",
              "groupValue": "Leukocytes (GI/L)"
            },
            {
              "groupingId": "AnlsGrouping_55_Aval",
              "groupValue": "Week 12"
            }
          ],
          "rawValue": "50",
          "formattedValue": "50"
        },
        {
          "operationId": "Mth_06_01_n",
          "resultGroups": [
            {
              "groupingId": "AnlsGrouping_52_Trt01An",
              "groupId": "AnlsGrouping_52_Trt01An_01"
            },
            {
              "groupingId": "AnlsGrouping_53_Param",
              "groupValue": "Leukocytes (GI/L)"
            },
            {
              "groupingId": "AnlsGrouping_55_Aval",
              "groupValue": "Week 16"
            }
          ],
          "rawValue": "42",
          "formattedValue": "42"
        },
        {
          "operationId": "Mth_06_01_n",
          "resultGroups": [
            {
              "groupingId": "AnlsGrouping_52_Trt01An",
              "groupId": "AnlsGrouping_52_Trt01An_01"
            },
            {
              "groupingId": "AnlsGrouping_53_Param",
              "groupValue": "Leukocytes (GI/L)"
            },
            {
              "groupingId": "AnlsGrouping_55_Aval",
              "groupValue": "Week 2"
            }
          ],
          "rawValue": "80",
          "formattedValue": "80"
        },
        {
          "operationId": "Mth_06_01_n",
          "resultGroups": [
            {
              "groupingId": "AnlsGrouping_52_Trt01An",
              "groupId": "AnlsGrouping_52_Trt01An_01"
            },
            {
              "groupingId": "AnlsGrouping_53_Param",
              "groupValue": "Leukocytes (GI/L)"
            },
            {
              "groupingId": "AnlsGrouping_55_Aval",
              "groupValue": "Week 20"
            }
          ],
          "rawValue": "30",
          "formattedValue": "30"
        },
        {
          "operationId": "Mth_06_01_n",
          "resultGroups": [
            {
              "groupingId": "AnlsGrouping_52_Trt01An",
              "groupId": "AnlsGrouping_52_Trt01An_01"
            },
            {
              "groupingId": "AnlsGrouping_53_Param",
              "groupValue": "Leukocytes (GI/L)"
            },
            {
              "groupingId": "AnlsGrouping_55_Aval",
              "groupValue": "Week 24"
            }
          ],
          "rawValue": "25",
          "formattedValue": "25"
        },
        {
          "operationId": "Mth_06_01_n",
          "resultGroups": [
            {
              "groupingId": "AnlsGrouping_52_Trt01An",
              "groupId": "AnlsGrouping_52_Trt01An_01"
            },
            {
              "groupingId": "AnlsGrouping_53_Param",
              "groupValue": "Leukocytes (GI/L)"
            },
            {
              "groupingId": "AnlsGrouping_55_Aval",
              "groupValue": "Week 26"
            }
          ],
          "rawValue": "25",
          "formattedValue": "25"
        },
        {
          "operationId": "Mth_06_01_n",
          "resultGroups": [
            {
              "groupingId": "AnlsGrouping_52_Trt01An",
              "groupId": "AnlsGrouping_52_Trt01An_01"
            },
            {
              "groupingId": "AnlsGrouping_53_Param",
              "groupValue": "Leukocytes (GI/L)"
            },
            {
              "groupingId": "AnlsGrouping_55_Aval",
              "groupValue": "Week 4"
            }
          ],
          "rawValue": "71",
          "formattedValue": "71"
        },
        {
          "operationId": "Mth_06_01_n",
          "resultGroups": [
            {
              "groupingId": "AnlsGrouping_52_Trt01An",
              "groupId": "AnlsGrouping_52_Trt01An_01"
            },
            {
              "groupingId": "AnlsGrouping_53_Param",
              "groupValue": "Leukocytes (GI/L)"
            },
            {
              "groupingId": "AnlsGrouping_55_Aval",
              "groupValue": "Week 6"
            }
          ],
          "rawValue": "62",
          "formattedValue": "62"
        },
        {
          "operationId": "Mth_06_01_n",
          "resultGroups": [
            {
              "groupingId": "AnlsGrouping_52_Trt01An",
              "groupId": "AnlsGrouping_52_Trt01An_01"
            },
            {
              "groupingId": "AnlsGrouping_53_Param",
              "groupValue": "Leukocytes (GI/L)"
            },
            {
              "groupingId": "AnlsGrouping_55_Aval",
              "groupValue": "Week 8"
            }
          ],
          "rawValue": "59",
          "formattedValue": "59"
        },
        {
          "operationId": "Mth_06_01_n",
          "resultGroups": [
            {
              "groupingId": "AnlsGrouping_52_Trt01An",
              "groupId": "AnlsGrouping_52_Trt01An_01"
            },
            {
              "groupingId": "AnlsGrouping_53_Param",
              "groupValue": "Lymphocytes (GI/L)"
            },
            {
              "groupingId": "AnlsGrouping_55_Aval",
              "groupValue": "End of Treatment"
            }
          ],
          "rawValue": "82",
          "formattedValue": "82"
        },
        {
          "operationId": "Mth_06_01_n",
          "resultGroups": [
            {
              "groupingId": "AnlsGrouping_52_Trt01An",
              "groupId": "AnlsGrouping_52_Trt01An_01"
            },
            {
              "groupingId": "AnlsGrouping_53_Param",
              "groupValue": "Lymphocytes (GI/L)"
            },
            {
              "groupingId": "AnlsGrouping_55_Aval",
              "groupValue": "Week 12"
            }
          ],
          "rawValue": "50",
          "formattedValue": "50"
        },
        {
          "operationId": "Mth_06_01_n",
          "resultGroups": [
            {
              "groupingId": "AnlsGrouping_52_Trt01An",
              "groupId": "AnlsGrouping_52_Trt01An_01"
            },
            {
              "groupingId": "AnlsGrouping_53_Param",
              "groupValue": "Lymphocytes (GI/L)"
            },
            {
              "groupingId": "AnlsGrouping_55_Aval",
              "groupValue": "Week 16"
            }
          ],
          "rawValue": "42",
          "formattedValue": "42"
        },
        {
          "operationId": "Mth_06_01_n",
          "resultGroups": [
            {
              "groupingId": "AnlsGrouping_52_Trt01An",
              "groupId": "AnlsGrouping_52_Trt01An_01"
            },
            {
              "groupingId": "AnlsGrouping_53_Param",
              "groupValue": "Lymphocytes (GI/L)"
            },
            {
              "groupingId": "AnlsGrouping_55_Aval",
              "groupValue": "Week 2"
            }
          ],
          "rawValue": "80",
          "formattedValue": "80"
        },
        {
          "operationId": "Mth_06_01_n",
          "resultGroups": [
            {
              "groupingId": "AnlsGrouping_52_Trt01An",
              "groupId": "AnlsGrouping_52_Trt01An_01"
            },
            {
              "groupingId": "AnlsGrouping_53_Param",
              "groupValue": "Lymphocytes (GI/L)"
            },
            {
              "groupingId": "AnlsGrouping_55_Aval",
              "groupValue": "Week 20"
            }
          ],
          "rawValue": "30",
          "formattedValue": "30"
        },
        {
          "operationId": "Mth_06_01_n",
          "resultGroups": [
            {
              "groupingId": "AnlsGrouping_52_Trt01An",
              "groupId": "AnlsGrouping_52_Trt01An_01"
            },
            {
              "groupingId": "AnlsGrouping_53_Param",
              "groupValue": "Lymphocytes (GI/L)"
            },
            {
              "groupingId": "AnlsGrouping_55_Aval",
              "groupValue": "Week 24"
            }
          ],
          "rawValue": "25",
          "formattedValue": "25"
        },
        {
          "operationId": "Mth_06_01_n",
          "resultGroups": [
            {
              "groupingId": "AnlsGrouping_52_Trt01An",
              "groupId": "AnlsGrouping_52_Trt01An_01"
            },
            {
              "groupingId": "AnlsGrouping_53_Param",
              "groupValue": "Lymphocytes (GI/L)"
            },
            {
              "groupingId": "AnlsGrouping_55_Aval",
              "groupValue": "Week 26"
            }
          ],
          "rawValue": "25",
          "formattedValue": "25"
        },
        {
          "operationId": "Mth_06_01_n",
          "resultGroups": [
            {
              "groupingId": "AnlsGrouping_52_Trt01An",
              "groupId": "AnlsGrouping_52_Trt01An_01"
            },
            {
              "groupingId": "AnlsGrouping_53_Param",
              "groupValue": "Lymphocytes (GI/L)"
            },
            {
              "groupingId": "AnlsGrouping_55_Aval",
              "groupValue": "Week 4"
            }
          ],
          "rawValue": "71",
          "formattedValue": "71"
        },
        {
          "operationId": "Mth_06_01_n",
          "resultGroups": [
            {
              "groupingId": "AnlsGrouping_52_Trt01An",
              "groupId": "AnlsGrouping_52_Trt01An_01"
            },
            {
              "groupingId": "AnlsGrouping_53_Param",
              "groupValue": "Lymphocytes (GI/L)"
            },
            {
              "groupingId": "AnlsGrouping_55_Aval",
              "groupValue": "Week 6"
            }
          ],
          "rawValue": "62",
          "formattedValue": "62"
        },
        {
          "operationId": "Mth_06_01_n",
          "resultGroups": [
            {
              "groupingId": "AnlsGrouping_52_Trt01An",
              "groupId": "AnlsGrouping_52_Trt01An_01"
            },
            {
              "groupingId": "AnlsGrouping_53_Param",
              "groupValue": "Lymphocytes (GI/L)"
            },
            {
              "groupingId": "AnlsGrouping_55_Aval",
              "groupValue": "Week 8"
            }
          ],
          "rawValue": "59",
          "formattedValue": "59"
        },
        {
          "operationId": "Mth_06_01_n",
          "resultGroups": [
            {
              "groupingId": "AnlsGrouping_52_Trt01An",
              "groupId": "AnlsGrouping_52_Trt01An_01"
            },
            {
              "groupingId": "AnlsGrouping_53_Param",
              "groupValue": "Macrocytes"
            },
            {
              "groupingId": "AnlsGrouping_55_Aval",
              "groupValue": "End of Treatment"
            }
          ],
          "rawValue": "13",
          "formattedValue": "13"
        },
        {
          "operationId": "Mth_06_01_n",
          "resultGroups": [
            {
              "groupingId": "AnlsGrouping_52_Trt01An",
              "groupId": "AnlsGrouping_52_Trt01An_01"
            },
            {
              "groupingId": "AnlsGrouping_53_Param",
              "groupValue": "Macrocytes"
            },
            {
              "groupingId": "AnlsGrouping_55_Aval",
              "groupValue": "Week 12"
            }
          ],
          "rawValue": "1",
          "formattedValue": "1"
        },
        {
          "operationId": "Mth_06_01_n",
          "resultGroups": [
            {
              "groupingId": "AnlsGrouping_52_Trt01An",
              "groupId": "AnlsGrouping_52_Trt01An_01"
            },
            {
              "groupingId": "AnlsGrouping_53_Param",
              "groupValue": "Macrocytes"
            },
            {
              "groupingId": "AnlsGrouping_55_Aval",
              "groupValue": "Week 16"
            }
          ],
          "rawValue": "2",
          "formattedValue": "2"
        },
        {
          "operationId": "Mth_06_01_n",
          "resultGroups": [
            {
              "groupingId": "AnlsGrouping_52_Trt01An",
              "groupId": "AnlsGrouping_52_Trt01An_01"
            },
            {
              "groupingId": "AnlsGrouping_53_Param",
              "groupValue": "Macrocytes"
            },
            {
              "groupingId": "AnlsGrouping_55_Aval",
              "groupValue": "Week 2"
            }
          ],
          "rawValue": "1",
          "formattedValue": "1"
        },
        {
          "operationId": "Mth_06_01_n",
          "resultGroups": [
