{
  "name": "Summary of Observed and Change from Baseline by Scheduled Visits - Chemistry Laboratory Test",
  "id": "ARS-LB-T01",
  "mainListOfContents": {
    "name": "List of Planned Analyses",
    "label": "LOPA",
    "contentsList": {
      "listItems": [
        {
          "name": "Summary of Observed and Change from Baseline by Scheduled Visits - Chemistry Laboratory Test",
          "level": 1,
          "order": 1,
          "outputId": "Out_10",
          "sublist": {
            "listItems": [
              {
                "name": "    Summary of Subjects by Treatment",
                "level": 2,
                "order": 1,
                "analysisId": "An_82"
              },
              {
                "name": "    Parameter (Unit)",
                "level": 2,
                "order": 2,
                "sublist": {
                  "listItems": [
                    {
                      "name": "        Baseline",
                      "level": 3,
                      "order": 1,
                      "sublist": {
                        "listItems": [
                          {
                            "name": "            Baseline Value",
                            "level": 4,
                            "order": 1,
                            "sublist": {
                              "listItems": [
                                {
                                  "name": "                Summary of Baseline Value by Treatment and Parameter (Unit)",
                                  "level": 5,
                                  "order": 1,
                                  "analysisId": "An_85"
                                }
                              ]
                            }
                          }
                        ]
                      }
                    },
                    {
                      "name": "        <Visit n>",
                      "level": 3,
                      "order": 2,
                      "sublist": {
                        "listItems": [
                          {
                            "name": "            Change Value",
                            "level": 4,
                            "order": 1,
                            "sublist": {
                              "listItems": [
                                {
                                  "name": "                Summary of Analysis Value by Treatment, Parameter (Unit) and Visit",
                                  "level": 5,
                                  "order": 1,
                                  "analysisId": "An_87"
                                }
                              ]
                            }
                          }
                        ]
                      }
                    },
                    {
                      "name": "        <Visit n Change from Baseline>",
                      "level": 3,
                      "order": 3,
                      "sublist": {
                        "listItems": [
                          {
                            "name": "            Change Value",
                            "level": 4,
                            "order": 1,
                            "sublist": {
                              "listItems": [
                                {
                                  "name": "                Summary of Change from Baseline by Treatment, Parameter (Unit) and Visit",
                                  "level": 5,
                                  "order": 1,
                                  "analysisId": "An_89"
                                }
                              ]
                            }
                          }
                        ]
                      }
                    }
                  ]
                }
              }
            ]
          }
        }
      ]
    }
  },
  "version": 1,
  "otherListsOfContents": [
    {
      "name": "List of Planned Outputs",
      "label": "LOPO",
      "contentsList": {
        "listItems": [
          {
            "name": "Summary of Observed and Change from Baseline by Scheduled Visits - Chemistry Laboratory Test",
            "level": 1,
            "order": 1,
            "outputId": "Out_10"
          }
        ]
      }
    }
  ],
  "terminologyExtensions": [
    {
      "id": "TermEx01",
      "sponsorTerms": [
        {
          "id": "TermEx01_01",
          "submissionValue": "POPULATION SUMMARY",
          "description": "Summary statistics describing the study population(s)."
        }
      ],
      "enumeration": "AnalysisPurposeEnum"
    }
  ],
  "analysisOutputCategorizations": [
    {
      "id": "ANSET",
      "categories": [
        {
          "id": "ANSET_01",
          "label": "Safety",
          "subCategorizations": [
            {
              "id": "ANSET_01_ANINT",
              "categories": [
                {
                  "id": "ANSET_01_ANINT_01",
                  "label": "Laboratory Test Results"
                }
              ],
              "label": "Safety Analysis Of Interest"
            }
          ]
        }
      ],
      "label": "Analysis Sets"
    }
  ],
  "analysisSets": [
    {
      "name": "Safety Population",
      "description": "All patients randomized and known to have taken at least one dose of randomized drug.",
      "id": "AnalysisSet_01",
      "level": 1,
      "order": 1,
      "condition": {
        "dataset": "ADSL",
        "variable": "SAFFL",
        "comparator": "EQ",
        "value": "Y"
      }
    }
  ],
  "dataSubsets": [
    {
      "name": "Baseline Chemistry Parameter",
      "id": "Dss_29",
      "level": 1,
      "order": 1,
      "compoundExpression": {
        "logicalOperator": "AND",
        "whereClauses": [
          {
            "level": 2,
            "order": 1,
            "condition": {
              "dataset": "ADLB",
              "variable": "PARCAT1",
              "comparator": "EQ",
              "value": "CHEM"
            }
          },
          {
            "level": 2,
            "order": 2,
            "condition": {
              "dataset": "ADLB",
              "variable": "PARAM",
              "comparator": "NE"
            }
          },
          {
            "level": 2,
            "order": 3,
            "condition": {
              "dataset": "ADLB",
              "variable": "AVISIT",
              "comparator": "EQ",
              "value": "Baseline"
            }
          }
        ]
      }
    },
    {
      "name": "Non-baseline Chemistry Parameter",
      "id": "Dss_30",
      "level": 1,
      "order": 1,
      "compoundExpression": {
        "logicalOperator": "AND",
        "whereClauses": [
          {
            "level": 2,
            "order": 1,
            "condition": {
              "dataset": "ADLB",
              "variable": "PARCAT1",
              "comparator": "EQ",
              "value": "CHEM"
            }
          },
          {
            "level": 2,
            "order": 2,
            "condition": {
              "dataset": "ADLB",
              "variable": "PARAM",
              "comparator": "NE"
            }
          },
          {
            "level": 2,
            "order": 3,
            "condition": {
              "dataset": "ADLB",
              "variable": "AVISIT",
              "comparator": "NE",
              "value": "Baseline"
            }
          }
        ]
      }
    },
    {
      "name": "Non-baseline Chemistry Parameter with Change",
      "id": "Dss_31",
      "level": 1,
      "order": 1,
      "compoundExpression": {
        "logicalOperator": "AND",
        "whereClauses": [
          {
            "level": 2,
            "order": 1,
            "condition": {
              "dataset": "ADLB",
              "variable": "PARCAT1",
              "comparator": "EQ",
              "value": "CHEM"
            }
          },
          {
            "level": 2,
            "order": 2,
            "condition": {
              "dataset": "ADLB",
              "variable": "PARAM",
              "comparator": "NE"
            }
          },
          {
            "level": 2,
            "order": 3,
            "condition": {
              "dataset": "ADLB",
              "variable": "AVISIT",
              "comparator": "NE",
              "value": "Baseline"
            }
          },
          {
            "level": 2,
            "order": 4,
            "condition": {
              "dataset": "ADLB",
              "variable": "CHG",
              "comparator": "NE"
            }
          }
        ]
      }
    }
  ],
  "analysisGroupings": [
    {
      "name": "Treatment",
      "id": "AnlsGrouping_47_Trt01An",
      "dataDriven": false,
      "groupingDataset": "ADSL",
      "groupingVariable": "TRT01AN",
      "groups": [
        {
          "name": "Xanomeline Low Dose \n(N=XX)",
          "id": "AnlsGrouping_47_Trt01An_01",
          "level": 1,
          "order": 1,
          "condition": {
            "dataset": "ADSL",
            "variable": "TRT01AN",
            "comparator": "EQ",
            "value": "1"
          }
        },
        {
          "name": "Xanomeline High Dose \n(N=XX)",
          "id": "AnlsGrouping_47_Trt01An_02",
          "level": 1,
          "order": 2,
          "condition": {
            "dataset": "ADSL",
            "variable": "TRT01AN",
            "comparator": "EQ",
            "value": "2"
          }
        },
        {
          "name": "Placebo \n(N=XX)",
          "id": "AnlsGrouping_47_Trt01An_03",
          "level": 1,
          "order": 3,
          "condition": {
            "dataset": "ADSL",
            "variable": "TRT01AN",
            "comparator": "EQ",
            "value": "3"
          }
        }
      ]
    },
    {
      "name": "Parameter",
      "label": "Parameter (Units)",
      "id": "AnlsGrouping_48_Param",
      "dataDriven": true,
      "groupingDataset": "ADLB",
      "groupingVariable": "PARAM"
    },
    {
      "name": "Visit",
      "label": "<Visit n>",
      "id": "AnlsGrouping_50_Aval",
      "dataDriven": true,
      "groupingDataset": "ADLB",
      "groupingVariable": "AVISIT"
    },
    {
      "name": "Visit",
      "label": "<Visit n Change from Baseline>",
      "id": "AnlsGrouping_51_Chg",
      "dataDriven": true,
      "groupingDataset": "ADLB",
      "groupingVariable": "AVISIT"
    }
  ],
  "methods": [
    {
      "name": "bigN",
      "description": "Grouped summary of categorical variable",
      "label": "Descriptive summary statistics across groups for a categorical variable, based on subject occurrence",
      "id": "Mth_00_1",
      "operations": [
        {
          "name": "n",
          "label": "n",
          "id": "Mth_00_1_01_n",
          "order": 1,
          "resultPattern": "(N=XX)"
        }
      ],
      "codeTemplate": {
        "context": "R (siera)",
        "code": "in_data = df2_analysisidhere |>\n    dplyr::select(distinctlisthere) |>\n    unique() |>\n    dplyr::mutate(dummy = 'dummyvar')\n\ndf3_analysisidhere <-\n  cards::ard_tabulate(\n    data = in_data,\n    by = c(byvarshere),\n    variables = dummy\n  ) |>\ndplyr::filter(stat_name == 'n') |>\n dplyr::mutate(operationid = 'opid1here')",
        "parameters": [
          {
            "name": "distinctlisthere",
            "description": "distinct list of grouping variables and analysis variable",
            "valueSource": "distinct_list"
          },
          {
            "name": "opid1here",
            "description": "operation 1 id",
            "valueSource": "operation_1"
          },
          {
            "name": "byvarshere",
            "description": "by variables list",
            "valueSource": "by_listc"
          }
        ]
      }
    },
    {
      "name": "Summary by group of a continuous variable",
      "description": "Descriptive summary statistics across groups for a continuous variable",
      "label": "Grouped summary of continuous variable",
      "id": "Mth_06",
      "operations": [
        {
          "name": "n",
          "label": "n",
          "id": "Mth_06_01_n",
          "order": 1,
          "resultPattern": "XX"
        },
        {
          "name": "Mean",
          "label": "Mean",
          "id": "Mth_06_02_Mean",
          "order": 2,
          "resultPattern": "XX.X"
        },
        {
          "name": "SD",
          "label": "SD",
          "id": "Mth_06_03_SD",
          "order": 3,
          "resultPattern": "(XX.XX)"
        },
        {
          "name": "Median",
          "label": "Median",
          "id": "Mth_06_04_Median",
          "order": 4,
          "resultPattern": "XX.X"
        },
        {
          "name": "Q1",
          "label": "Q1",
          "id": "Mth_06_05_Q1",
          "order": 5,
          "resultPattern": "XX.X"
        },
        {
          "name": "Q3",
          "label": "Q3",
          "id": "Mth_06_06_Q3",
          "order": 6,
          "resultPattern": "XX.X"
        },
        {
          "name": "Min",
          "label": "Min",
          "id": "Mth_06_07_Min",
          "order": 7,
          "resultPattern": "XX.X"
        },
        {
          "name": "Max",
          "label": "Max",
          "id": "Mth_06_08_Max",
          "order": 8,
          "resultPattern": "XX.X"
        }
      ],
      "codeTemplate": {
        "context": "R (siera)",
        "code": "df3_analysisidhere <-\n    cards::ard_summary(\n        data = df2_analysisidhere,\n        by = c(byvarshere),\n        variables = anavarhere\n    ) |>\n    dplyr::mutate(operationid = dplyr::case_when(\n        stat_name == 'N'      ~ 'opid1here',\n        stat_name == 'mean'   ~ 'opid2here',\n        stat_name == 'sd'     ~ 'opid3here',\n        stat_name == 'median' ~ 'opid4here',\n        stat_name == 'p25'    ~ 'opid5here',\n        stat_name == 'p75'    ~ 'opid6here',\n        stat_name == 'min'    ~ 'opid7here',\n        stat_name == 'max'    ~ 'opid8here'\n    ))",
        "parameters": [
          {
            "name": "byvarshere",
            "description": "by variables list",
            "valueSource": "by_listc"
          },
          {
            "name": "opid1here",
            "description": "operation 1 id (n)",
            "valueSource": "operation_1"
          },
          {
            "name": "opid2here",
            "description": "operation 2 id (Mean)",
            "valueSource": "operation_2"
          },
          {
            "name": "opid3here",
            "description": "operation 3 id (SD)",
            "valueSource": "operation_3"
          },
          {
            "name": "opid4here",
            "description": "operation 4 id (Median)",
            "valueSource": "operation_4"
          },
          {
            "name": "opid5here",
            "description": "operation 5 id (Q1)",
            "valueSource": "operation_5"
          },
          {
            "name": "opid6here",
            "description": "operation 6 id (Q3)",
            "valueSource": "operation_6"
          },
          {
            "name": "opid7here",
            "description": "operation 7 id (Min)",
            "valueSource": "operation_7"
          },
          {
            "name": "opid8here",
            "description": "operation 8 id (Max)",
            "valueSource": "operation_8"
          },
          {
            "name": "anavarhere",
            "description": "analysis variable",
            "valueSource": "ana_var"
          }
        ]
      }
    }
  ],
  "analyses": [
    {
      "name": "Summary of Subjects by Treatment",
      "id": "An_82",
      "reason": {
        "controlledTerm": "SPECIFIED IN SAP"
      },
      "purpose": {
        "sponsorTermId": "TermEx01_01"
      },
      "methodId": "Mth_00_1",
      "version": 1,
      "categoryIds": [
        "ANSET_01",
        "ANSET_01_ANINT_01"
      ],
      "dataset": "ADLB",
      "variable": "USUBJID",
      "analysisSetId": "AnalysisSet_01",
      "orderedGroupings": [
        {
          "order": 1,
          "groupingId": "AnlsGrouping_47_Trt01An",
          "resultsByGroup": true
        }
      ],
      "results": [
        {
          "operationId": "Mth_00_1_01_n",
          "resultGroups": [
            {
              "groupingId": "AnlsGrouping_47_Trt01An",
              "groupId": "AnlsGrouping_47_Trt01An_01"
            }
          ],
          "rawValue": "84",
          "formattedValue": "(N=84)"
        },
        {
          "operationId": "Mth_00_1_01_n",
          "resultGroups": [
            {
              "groupingId": "AnlsGrouping_47_Trt01An",
              "groupId": "AnlsGrouping_47_Trt01An_02"
            }
          ],
          "rawValue": "84",
          "formattedValue": "(N=84)"
        },
        {
          "operationId": "Mth_00_1_01_n",
          "resultGroups": [
            {
              "groupingId": "AnlsGrouping_47_Trt01An",
              "groupId": "AnlsGrouping_47_Trt01An_03"
            }
          ],
          "rawValue": "86",
          "formattedValue": "(N=86)"
        }
      ]
    },
    {
      "name": "Summary of Baseline Value by Treatment and Parameter (Unit)",
      "id": "An_85",
      "reason": {
        "controlledTerm": "SPECIFIED IN SAP"
      },
      "purpose": {
        "controlledTerm": "PRIMARY OUTCOME MEASURE"
      },
      "methodId": "Mth_06",
      "version": 1,
      "categoryIds": [
        "ANSET_01",
        "ANSET_01_ANINT_01"
      ],
      "dataset": "ADLB",
      "variable": "BASE",
      "analysisSetId": "AnalysisSet_01",
      "dataSubsetId": "Dss_29",
      "orderedGroupings": [
        {
          "order": 1,
          "groupingId": "AnlsGrouping_47_Trt01An",
          "resultsByGroup": true
        },
        {
          "order": 2,
          "groupingId": "AnlsGrouping_48_Param",
          "resultsByGroup": true
        }
      ],
      "results": [
        {
          "operationId": "Mth_06_01_n",
          "resultGroups": [
            {
              "groupingId": "AnlsGrouping_47_Trt01An",
              "groupId": "AnlsGrouping_47_Trt01An_01"
            },
            {
              "groupingId": "AnlsGrouping_48_Param",
              "groupValue": "Alanine Aminotransferase (U/L)"
            }
          ],
          "rawValue": "82",
          "formattedValue": "82"
        },
        {
          "operationId": "Mth_06_01_n",
          "resultGroups": [
            {
              "groupingId": "AnlsGrouping_47_Trt01An",
              "groupId": "AnlsGrouping_47_Trt01An_01"
            },
            {
              "groupingId": "AnlsGrouping_48_Param",
              "groupValue": "Albumin (g/L)"
            }
          ],
          "rawValue": "82",
          "formattedValue": "82"
        },
        {
          "operationId": "Mth_06_01_n",
          "resultGroups": [
            {
              "groupingId": "AnlsGrouping_47_Trt01An",
              "groupId": "AnlsGrouping_47_Trt01An_01"
            },
            {
              "groupingId": "AnlsGrouping_48_Param",
              "groupValue": "Alkaline Phosphatase (U/L)"
            }
          ],
          "rawValue": "81",
          "formattedValue": "81"
        },
        {
          "operationId": "Mth_06_01_n",
          "resultGroups": [
            {
              "groupingId": "AnlsGrouping_47_Trt01An",
              "groupId": "AnlsGrouping_47_Trt01An_01"
            },
            {
              "groupingId": "AnlsGrouping_48_Param",
              "groupValue": "Aspartate Aminotransferase (U/L)"
            }
          ],
          "rawValue": "82",
          "formattedValue": "82"
        },
        {
          "operationId": "Mth_06_01_n",
          "resultGroups": [
            {
              "groupingId": "AnlsGrouping_47_Trt01An",
              "groupId": "AnlsGrouping_47_Trt01An_01"
            },
            {
              "groupingId": "AnlsGrouping_48_Param",
              "groupValue": "Bilirubin (umol/L)"
            }
          ],
          "rawValue": "82",
          "formattedValue": "82"
        },
        {
          "operationId": "Mth_06_01_n",
          "resultGroups": [
            {
              "groupingId": "AnlsGrouping_47_Trt01An",
              "groupId": "AnlsGrouping_47_Trt01An_01"
            },
            {
              "groupingId": "AnlsGrouping_48_Param",
              "groupValue": "Blood Urea Nitrogen (mmol/L)"
            }
          ],
          "rawValue": "82",
          "formattedValue": "82"
        },
        {
          "operationId": "Mth_06_01_n",
          "resultGroups": [
            {
              "groupingId": "AnlsGrouping_47_Trt01An",
              "groupId": "AnlsGrouping_47_Trt01An_01"
            },
            {
              "groupingId": "AnlsGrouping_48_Param",
              "groupValue": "Calcium (mmol/L)"
            }
          ],
          "rawValue": "82",
          "formattedValue": "82"
        },
        {
          "operationId": "Mth_06_01_n",
          "resultGroups": [
            {
              "groupingId": "AnlsGrouping_47_Trt01An",
              "groupId": "AnlsGrouping_47_Trt01An_01"
            },
            {
              "groupingId": "AnlsGrouping_48_Param",
              "groupValue": "Chloride (mmol/L)"
            }
          ],
          "rawValue": "82",
          "formattedValue": "82"
        },
        {
          "operationId": "Mth_06_01_n",
          "resultGroups": [
            {
              "groupingId": "AnlsGrouping_47_Trt01An",
              "groupId": "AnlsGrouping_47_Trt01An_01"
            },
            {
              "groupingId": "AnlsGrouping_48_Param",
              "groupValue": "Cholesterol (mmol/L)"
            }
          ],
          "rawValue": "82",
          "formattedValue": "82"
        },
        {
          "operationId": "Mth_06_01_n",
          "resultGroups": [
            {
              "groupingId": "AnlsGrouping_47_Trt01An",
              "groupId": "AnlsGrouping_47_Trt01An_01"
            },
            {
              "groupingId": "AnlsGrouping_48_Param",
              "groupValue": "Creatine Kinase (U/L)"
            }
          ],
          "rawValue": "82",
          "formattedValue": "82"
        },
        {
          "operationId": "Mth_06_01_n",
          "resultGroups": [
            {
              "groupingId": "AnlsGrouping_47_Trt01An",
              "groupId": "AnlsGrouping_47_Trt01An_01"
            },
            {
              "groupingId": "AnlsGrouping_48_Param",
              "groupValue": "Creatinine (umol/L)"
            }
          ],
          "rawValue": "82",
          "formattedValue": "82"
        },
        {
          "operationId": "Mth_06_01_n",
          "resultGroups": [
            {
              "groupingId": "AnlsGrouping_47_Trt01An",
              "groupId": "AnlsGrouping_47_Trt01An_01"
            },
            {
              "groupingId": "AnlsGrouping_48_Param",
              "groupValue": "Gamma Glutamyl Transferase (U/L)"
            }
          ],
          "rawValue": "82",
          "formattedValue": "82"
        },
        {
          "operationId": "Mth_06_01_n",
          "resultGroups": [
            {
              "groupingId": "AnlsGrouping_47_Trt01An",
              "groupId": "AnlsGrouping_47_Trt01An_01"
            },
            {
              "groupingId": "AnlsGrouping_48_Param",
              "groupValue": "Glucose (mmol/L)"
            }
          ],
          "rawValue": "82",
          "formattedValue": "82"
        },
        {
          "operationId": "Mth_06_01_n",
          "resultGroups": [
            {
              "groupingId": "AnlsGrouping_47_Trt01An",
              "groupId": "AnlsGrouping_47_Trt01An_01"
            },
            {
              "groupingId": "AnlsGrouping_48_Param",
              "groupValue": "Phosphate (mmol/L)"
            }
          ],
          "rawValue": "81",
          "formattedValue": "81"
        },
        {
          "operationId": "Mth_06_01_n",
          "resultGroups": [
            {
              "groupingId": "AnlsGrouping_47_Trt01An",
              "groupId": "AnlsGrouping_47_Trt01An_01"
            },
            {
              "groupingId": "AnlsGrouping_48_Param",
              "groupValue": "Potassium (mmol/L)"
            }
          ],
          "rawValue": "81",
          "formattedValue": "81"
        },
        {
          "operationId": "Mth_06_01_n",
          "resultGroups": [
            {
              "groupingId": "AnlsGrouping_47_Trt01An",
              "groupId": "AnlsGrouping_47_Trt01An_01"
            },
            {
              "groupingId": "AnlsGrouping_48_Param",
              "groupValue": "Protein (g/L)"
            }
          ],
          "rawValue": "82",
          "formattedValue": "82"
        },
        {
          "operationId": "Mth_06_01_n",
          "resultGroups": [
            {
              "groupingId": "AnlsGrouping_47_Trt01An",
              "groupId": "AnlsGrouping_47_Trt01An_01"
            },
            {
              "groupingId": "AnlsGrouping_48_Param",
              "groupValue": "Sodium (mmol/L)"
            }
          ],
          "rawValue": "82",
          "formattedValue": "82"
        },
        {
          "operationId": "Mth_06_01_n",
          "resultGroups": [
            {
              "groupingId": "AnlsGrouping_47_Trt01An",
              "groupId": "AnlsGrouping_47_Trt01An_01"
            },
            {
              "groupingId": "AnlsGrouping_48_Param",
              "groupValue": "Urate (umol/L)"
            }
          ],
          "rawValue": "82",
          "formattedValue": "82"
        },
        {
          "operationId": "Mth_06_01_n",
          "resultGroups": [
            {
              "groupingId": "AnlsGrouping_47_Trt01An",
              "groupId": "AnlsGrouping_47_Trt01An_02"
            },
            {
              "groupingId": "AnlsGrouping_48_Param",
              "groupValue": "Alanine Aminotransferase (U/L)"
            }
          ],
          "rawValue": "84",
          "formattedValue": "84"
        },
        {
          "operationId": "Mth_06_01_n",
          "resultGroups": [
            {
              "groupingId": "AnlsGrouping_47_Trt01An",
              "groupId": "AnlsGrouping_47_Trt01An_02"
            },
            {
              "groupingId": "AnlsGrouping_48_Param",
              "groupValue": "Albumin (g/L)"
            }
          ],
          "rawValue": "84",
          "formattedValue": "84"
        },
        {
          "operationId": "Mth_06_01_n",
          "resultGroups": [
            {
              "groupingId": "AnlsGrouping_47_Trt01An",
              "groupId": "AnlsGrouping_47_Trt01An_02"
            },
            {
              "groupingId": "AnlsGrouping_48_Param",
              "groupValue": "Alkaline Phosphatase (U/L)"
            }
          ],
          "rawValue": "83",
          "formattedValue": "83"
        },
        {
          "operationId": "Mth_06_01_n",
          "resultGroups": [
            {
              "groupingId": "AnlsGrouping_47_Trt01An",
              "groupId": "AnlsGrouping_47_Trt01An_02"
            },
            {
              "groupingId": "AnlsGrouping_48_Param",
              "groupValue": "Aspartate Aminotransferase (U/L)"
            }
          ],
          "rawValue": "84",
          "formattedValue": "84"
        },
        {
          "operationId": "Mth_06_01_n",
          "resultGroups": [
            {
              "groupingId": "AnlsGrouping_47_Trt01An",
              "groupId": "AnlsGrouping_47_Trt01An_02"
            },
            {
              "groupingId": "AnlsGrouping_48_Param",
              "groupValue": "Bilirubin (umol/L)"
            }
          ],
          "rawValue": "84",
          "formattedValue": "84"
        },
        {
          "operationId": "Mth_06_01_n",
          "resultGroups": [
            {
              "groupingId": "AnlsGrouping_47_Trt01An",
              "groupId": "AnlsGrouping_47_Trt01An_02"
            },
            {
              "groupingId": "AnlsGrouping_48_Param",
              "groupValue": "Blood Urea Nitrogen (mmol/L)"
            }
          ],
          "rawValue": "84",
          "formattedValue": "84"
        },
        {
          "operationId": "Mth_06_01_n",
          "resultGroups": [
            {
              "groupingId": "AnlsGrouping_47_Trt01An",
              "groupId": "AnlsGrouping_47_Trt01An_02"
            },
            {
              "groupingId": "AnlsGrouping_48_Param",
              "groupValue": "Calcium (mmol/L)"
            }
          ],
          "rawValue": "84",
          "formattedValue": "84"
        },
        {
          "operationId": "Mth_06_01_n",
          "resultGroups": [
            {
              "groupingId": "AnlsGrouping_47_Trt01An",
              "groupId": "AnlsGrouping_47_Trt01An_02"
            },
            {
              "groupingId": "AnlsGrouping_48_Param",
              "groupValue": "Chloride (mmol/L)"
            }
          ],
          "rawValue": "83",
          "formattedValue": "83"
        },
        {
          "operationId": "Mth_06_01_n",
          "resultGroups": [
            {
              "groupingId": "AnlsGrouping_47_Trt01An",
              "groupId": "AnlsGrouping_47_Trt01An_02"
            },
            {
              "groupingId": "AnlsGrouping_48_Param",
              "groupValue": "Cholesterol (mmol/L)"
            }
          ],
          "rawValue": "84",
          "formattedValue": "84"
        },
        {
          "operationId": "Mth_06_01_n",
          "resultGroups": [
            {
              "groupingId": "AnlsGrouping_47_Trt01An",
              "groupId": "AnlsGrouping_47_Trt01An_02"
            },
            {
              "groupingId": "AnlsGrouping_48_Param",
              "groupValue": "Creatine Kinase (U/L)"
            }
          ],
          "rawValue": "84",
          "formattedValue": "84"
        },
        {
          "operationId": "Mth_06_01_n",
          "resultGroups": [
            {
              "groupingId": "AnlsGrouping_47_Trt01An",
              "groupId": "AnlsGrouping_47_Trt01An_02"
            },
            {
              "groupingId": "AnlsGrouping_48_Param",
              "groupValue": "Creatinine (umol/L)"
            }
          ],
          "rawValue": "84",
          "formattedValue": "84"
        },
        {
          "operationId": "Mth_06_01_n",
          "resultGroups": [
            {
              "groupingId": "AnlsGrouping_47_Trt01An",
              "groupId": "AnlsGrouping_47_Trt01An_02"
            },
            {
              "groupingId": "AnlsGrouping_48_Param",
              "groupValue": "Gamma Glutamyl Transferase (U/L)"
            }
          ],
          "rawValue": "84",
          "formattedValue": "84"
        },
        {
          "operationId": "Mth_06_01_n",
          "resultGroups": [
            {
              "groupingId": "AnlsGrouping_47_Trt01An",
              "groupId": "AnlsGrouping_47_Trt01An_02"
            },
            {
              "groupingId": "AnlsGrouping_48_Param",
              "groupValue": "Glucose (mmol/L)"
            }
          ],
          "rawValue": "84",
          "formattedValue": "84"
        },
        {
          "operationId": "Mth_06_01_n",
          "resultGroups": [
            {
              "groupingId": "AnlsGrouping_47_Trt01An",
              "groupId": "AnlsGrouping_47_Trt01An_02"
            },
            {
              "groupingId": "AnlsGrouping_48_Param",
              "groupValue": "Phosphate (mmol/L)"
            }
          ],
          "rawValue": "83",
          "formattedValue": "83"
        },
        {
          "operationId": "Mth_06_01_n",
          "resultGroups": [
            {
              "groupingId": "AnlsGrouping_47_Trt01An",
              "groupId": "AnlsGrouping_47_Trt01An_02"
            },
            {
              "groupingId": "AnlsGrouping_48_Param",
              "groupValue": "Potassium (mmol/L)"
            }
          ],
          "rawValue": "82",
          "formattedValue": "82"
        },
        {
          "operationId": "Mth_06_01_n",
          "resultGroups": [
            {
              "groupingId": "AnlsGrouping_47_Trt01An",
              "groupId": "AnlsGrouping_47_Trt01An_02"
            },
            {
              "groupingId": "AnlsGrouping_48_Param",
              "groupValue": "Protein (g/L)"
            }
          ],
          "rawValue": "84",
          "formattedValue": "84"
        },
        {
          "operationId": "Mth_06_01_n",
          "resultGroups": [
            {
              "groupingId": "AnlsGrouping_47_Trt01An",
              "groupId": "AnlsGrouping_47_Trt01An_02"
            },
            {
              "groupingId": "AnlsGrouping_48_Param",
              "groupValue": "Sodium (mmol/L)"
            }
          ],
          "rawValue": "83",
          "formattedValue": "83"
        },
        {
          "operationId": "Mth_06_01_n",
          "resultGroups": [
            {
              "groupingId": "AnlsGrouping_47_Trt01An",
              "groupId": "AnlsGrouping_47_Trt01An_02"
            },
            {
              "groupingId": "AnlsGrouping_48_Param",
              "groupValue": "Urate (umol/L)"
            }
          ],
          "rawValue": "84",
          "formattedValue": "84"
        },
        {
          "operationId": "Mth_06_01_n",
          "resultGroups": [
            {
              "groupingId": "AnlsGrouping_47_Trt01An",
              "groupId": "AnlsGrouping_47_Trt01An_03"
            },
            {
              "groupingId": "AnlsGrouping_48_Param",
              "groupValue": "Alanine Aminotransferase (U/L)"
            }
          ],
          "rawValue": "86",
          "formattedValue": "86"
        },
        {
          "operationId": "Mth_06_01_n",
          "resultGroups": [
            {
              "groupingId": "AnlsGrouping_47_Trt01An",
              "groupId": "AnlsGrouping_47_Trt01An_03"
            },
            {
              "groupingId": "AnlsGrouping_48_Param",
              "groupValue": "Albumin (g/L)"
            }
          ],
          "rawValue": "86",
          "formattedValue": "86"
        },
        {
          "operationId": "Mth_06_01_n",
          "resultGroups": [
            {
              "groupingId": "AnlsGrouping_47_Trt01An",
              "groupId": "AnlsGrouping_47_Trt01An_03"
            },
            {
              "groupingId": "AnlsGrouping_48_Param",
              "groupValue": "Alkaline Phosphatase (U/L)"
            }
          ],
          "rawValue": "86",
          "formattedValue": "86"
        },
        {
          "operationId": "Mth_06_01_n",
          "resultGroups": [
            {
              "groupingId": "AnlsGrouping_47_Trt01An",
              "groupId": "AnlsGrouping_47_Trt01An_03"
            },
            {
              "groupingId": "AnlsGrouping_48_Param",
              "groupValue": "Aspartate Aminotransferase (U/L)"
            }
          ],
          "rawValue": "86",
          "formattedValue": "86"
        },
        {
          "operationId": "Mth_06_01_n",
          "resultGroups": [
            {
              "groupingId": "AnlsGrouping_47_Trt01An",
              "groupId": "AnlsGrouping_47_Trt01An_03"
            },
            {
              "groupingId": "AnlsGrouping_48_Param",
              "groupValue": "Bilirubin (umol/L)"
            }
          ],
          "rawValue": "86",
          "formattedValue": "86"
        },
        {
          "operationId": "Mth_06_01_n",
          "resultGroups": [
            {
              "groupingId": "AnlsGrouping_47_Trt01An",
              "groupId": "AnlsGrouping_47_Trt01An_03"
            },
            {
              "groupingId": "AnlsGrouping_48_Param",
              "groupValue": "Blood Urea Nitrogen (mmol/L)"
            }
          ],
          "rawValue": "86",
          "formattedValue": "86"
        },
        {
          "operationId": "Mth_06_01_n",
          "resultGroups": [
            {
              "groupingId": "AnlsGrouping_47_Trt01An",
              "groupId": "AnlsGrouping_47_Trt01An_03"
            },
            {
              "groupingId": "AnlsGrouping_48_Param",
              "groupValue": "Calcium (mmol/L)"
            }
          ],
          "rawValue": "86",
          "formattedValue": "86"
        },
        {
          "operationId": "Mth_06_01_n",
          "resultGroups": [
            {
              "groupingId": "AnlsGrouping_47_Trt01An",
              "groupId": "AnlsGrouping_47_Trt01An_03"
            },
            {
              "groupingId": "AnlsGrouping_48_Param",
              "groupValue": "Chloride (mmol/L)"
            }
          ],
          "rawValue": "86",
          "formattedValue": "86"
        },
        {
          "operationId": "Mth_06_01_n",
          "resultGroups": [
            {
              "groupingId": "AnlsGrouping_47_Trt01An",
              "groupId": "AnlsGrouping_47_Trt01An_03"
            },
            {
              "groupingId": "AnlsGrouping_48_Param",
              "groupValue": "Cholesterol (mmol/L)"
            }
          ],
          "rawValue": "86",
          "formattedValue": "86"
        },
        {
          "operationId": "Mth_06_01_n",
          "resultGroups": [
            {
              "groupingId": "AnlsGrouping_47_Trt01An",
              "groupId": "AnlsGrouping_47_Trt01An_03"
            },
            {
              "groupingId": "AnlsGrouping_48_Param",
              "groupValue": "Creatine Kinase (U/L)"
            }
          ],
          "rawValue": "86",
          "formattedValue": "86"
        },
        {
          "operationId": "Mth_06_01_n",
          "resultGroups": [
            {
              "groupingId": "AnlsGrouping_47_Trt01An",
              "groupId": "AnlsGrouping_47_Trt01An_03"
            },
            {
              "groupingId": "AnlsGrouping_48_Param",
              "groupValue": "Creatinine (umol/L)"
            }
          ],
          "rawValue": "86",
          "formattedValue": "86"
        },
        {
          "operationId": "Mth_06_01_n",
          "resultGroups": [
            {
              "groupingId": "AnlsGrouping_47_Trt01An",
              "groupId": "AnlsGrouping_47_Trt01An_03"
            },
            {
              "groupingId": "AnlsGrouping_48_Param",
              "groupValue": "Gamma Glutamyl Transferase (U/L)"
            }
          ],
          "rawValue": "86",
          "formattedValue": "86"
        },
        {
          "operationId": "Mth_06_01_n",
          "resultGroups": [
            {
              "groupingId": "AnlsGrouping_47_Trt01An",
              "groupId": "AnlsGrouping_47_Trt01An_03"
            },
            {
              "groupingId": "AnlsGrouping_48_Param",
              "groupValue": "Glucose (mmol/L)"
            }
          ],
          "rawValue": "86",
          "formattedValue": "86"
        },
        {
          "operationId": "Mth_06_01_n",
          "resultGroups": [
            {
              "groupingId": "AnlsGrouping_47_Trt01An",
              "groupId": "AnlsGrouping_47_Trt01An_03"
            },
            {
              "groupingId": "AnlsGrouping_48_Param",
              "groupValue": "Phosphate (mmol/L)"
            }
          ],
          "rawValue": "86",
          "formattedValue": "86"
        },
        {
          "operationId": "Mth_06_01_n",
          "resultGroups": [
            {
              "groupingId": "AnlsGrouping_47_Trt01An",
              "groupId": "AnlsGrouping_47_Trt01An_03"
            },
            {
              "groupingId": "AnlsGrouping_48_Param",
              "groupValue": "Potassium (mmol/L)"
            }
          ],
          "rawValue": "86",
          "formattedValue": "86"
        },
        {
          "operationId": "Mth_06_01_n",
          "resultGroups": [
            {
              "groupingId": "AnlsGrouping_47_Trt01An",
              "groupId": "AnlsGrouping_47_Trt01An_03"
            },
            {
              "groupingId": "AnlsGrouping_48_Param",
              "groupValue": "Protein (g/L)"
            }
          ],
          "rawValue": "86",
          "formattedValue": "86"
        },
        {
          "operationId": "Mth_06_01_n",
          "resultGroups": [
            {
              "groupingId": "AnlsGrouping_47_Trt01An",
              "groupId": "AnlsGrouping_47_Trt01An_03"
            },
            {
              "groupingId": "AnlsGrouping_48_Param",
              "groupValue": "Sodium (mmol/L)"
            }
          ],
          "rawValue": "86",
          "formattedValue": "86"
        },
        {
          "operationId": "Mth_06_01_n",
          "resultGroups": [
            {
              "groupingId": "AnlsGrouping_47_Trt01An",
              "groupId": "AnlsGrouping_47_Trt01An_03"
            },
            {
              "groupingId": "AnlsGrouping_48_Param",
              "groupValue": "Urate (umol/L)"
            }
          ],
          "rawValue": "86",
          "formattedValue": "86"
        },
        {
          "operationId": "Mth_06_02_Mean",
          "resultGroups": [
            {
              "groupingId": "AnlsGrouping_47_Trt01An",
              "groupId": "AnlsGrouping_47_Trt01An_01"
            },
            {
              "groupingId": "AnlsGrouping_48_Param",
              "groupValue": "Alanine Aminotransferase (U/L)"
            }
          ],
          "rawValue": "17.963414634",
          "formattedValue": "18.0"
        },
        {
          "operationId": "Mth_06_02_Mean",
          "resultGroups": [
            {
              "groupingId": "AnlsGrouping_47_Trt01An",
              "groupId": "AnlsGrouping_47_Trt01An_01"
            },
            {
              "groupingId": "AnlsGrouping_48_Param",
              "groupValue": "Albumin (g/L)"
            }
          ],
          "rawValue": "39.768292683",
          "formattedValue": "39.8"
        },
        {
          "operationId": "Mth_06_02_Mean",
          "resultGroups": [
            {
              "groupingId": "AnlsGrouping_47_Trt01An",
              "groupId": "AnlsGrouping_47_Trt01An_01"
            },
            {
              "groupingId": "AnlsGrouping_48_Param",
              "groupValue": "Alkaline Phosphatase (U/L)"
            }
          ],
          "rawValue": "73.333333333",
          "formattedValue": "73.3"
        },
        {
          "operationId": "Mth_06_02_Mean",
          "resultGroups": [
            {
              "groupingId": "AnlsGrouping_47_Trt01An",
              "groupId": "AnlsGrouping_47_Trt01An_01"
            },
            {
              "groupingId": "AnlsGrouping_48_Param",
              "groupValue": "Aspartate Aminotransferase (U/L)"
            }
          ],
          "rawValue": "23.43902439",
          "formattedValue": "23.4"
        },
        {
          "operationId": "Mth_06_02_Mean",
          "resultGroups": [
            {
              "groupingId": "AnlsGrouping_47_Trt01An",
              "groupId": "AnlsGrouping_47_Trt01An_01"
            },
            {
              "groupingId": "AnlsGrouping_48_Param",
              "groupValue": "Bilirubin (umol/L)"
            }
          ],
          "rawValue": "9.4467073171",
          "formattedValue": "9.447"
        },
        {
          "operationId": "Mth_06_02_Mean",
          "resultGroups": [
            {
              "groupingId": "AnlsGrouping_47_Trt01An",
              "groupId": "AnlsGrouping_47_Trt01An_01"
            },
            {
              "groupingId": "AnlsGrouping_48_Param",
              "groupValue": "Blood Urea Nitrogen (mmol/L)"
            }
          ],
          "rawValue": "6.3737560976",
          "formattedValue": "6.3738"
        },
        {
          "operationId": "Mth_06_02_Mean",
          "resultGroups": [
            {
              "groupingId": "AnlsGrouping_47_Trt01An",
              "groupId": "AnlsGrouping_47_Trt01An_01"
            },
            {
              "groupingId": "AnlsGrouping_48_Param",
              "groupValue": "Calcium (mmol/L)"
            }
          ],
          "rawValue": "2.2996597561",
          "formattedValue": "2.299660"
        },
        {
          "operationId": "Mth_06_02_Mean",
          "resultGroups": [
            {
              "groupingId": "AnlsGrouping_47_Trt01An",
              "groupId": "AnlsGrouping_47_Trt01An_01"
            },
            {
              "groupingId": "AnlsGrouping_48_Param",
              "groupValue": "Chloride (mmol/L)"
            }
          ],
          "rawValue": "105.80487805",
          "formattedValue": "105.8"
        },
        {
          "operationId": "Mth_06_02_Mean",
          "resultGroups": [
            {
              "groupingId": "AnlsGrouping_47_Trt01An",
              "groupId": "AnlsGrouping_47_Trt01An_01"
            },
            {
              "groupingId": "AnlsGrouping_48_Param",
              "groupValue": "Cholesterol (mmol/L)"
            }
          ],
          "rawValue": "5.654825122",
          "formattedValue": "5.654825"
        },
        {
          "operationId": "Mth_06_02_Mean",
          "resultGroups": [
            {
              "groupingId": "AnlsGrouping_47_Trt01An",
              "groupId": "AnlsGrouping_47_Trt01An_01"
            },
            {
              "groupingId": "AnlsGrouping_48_Param",
              "groupValue": "Creatine Kinase (U/L)"
            }
          ],
          "rawValue": "100.57317073",
          "formattedValue": "100.6"
        },
        {
          "operationId": "Mth_06_02_Mean",
          "resultGroups": [
            {
              "groupingId": "AnlsGrouping_47_Trt01An",
              "groupId": "AnlsGrouping_47_Trt01An_01"
            },
            {
              "groupingId": "AnlsGrouping_48_Param",
              "groupValue": "Creatinine (umol/L)"
            }
          ],
          "rawValue": "103.49268293",
          "formattedValue": "103.493"
        },
        {
          "operationId": "Mth_06_02_Mean",
          "resultGroups": [
            {
              "groupingId": "AnlsGrouping_47_Trt01An",
              "groupId": "AnlsGrouping_47_Trt01An_01"
            },
            {
              "groupingId": "AnlsGrouping_48_Param",
              "groupValue": "Gamma Glutamyl Transferase (U/L)"
            }
          ],
          "rawValue": "22.195121951",
          "formattedValue": "22.2"
        },
        {
          "operationId": "Mth_06_02_Mean",
          "resultGroups": [
            {
              "groupingId": "AnlsGrouping_47_Trt01An",
              "groupId": "AnlsGrouping_47_Trt01An_01"
            },
            {
              "groupingId": "AnlsGrouping_48_Param",
              "groupValue": "Glucose (mmol/L)"
            }
          ],
          "rawValue": "5.412225",
          "formattedValue": "5.412225"
        },
        {
          "operationId": "Mth_06_02_Mean",
          "resultGroups": [
            {
              "groupingId": "AnlsGrouping_47_Trt01An",
              "groupId": "AnlsGrouping_47_Trt01An_01"
            },
            {
              "groupingId": "AnlsGrouping_48_Param",
              "groupValue": "Phosphate (mmol/L)"
            }
          ],
          "rawValue": "1.1544671605",
          "formattedValue": "1.154467"
        },
        {
          "operationId": "Mth_06_02_Mean",
          "resultGroups": [
            {
              "groupingId": "AnlsGrouping_47_Trt01An",
              "groupId": "AnlsGrouping_47_Trt01An_01"
            },
            {
              "groupingId": "AnlsGrouping_48_Param",
              "groupValue": "Potassium (mmol/L)"
            }
          ],
          "rawValue": "4.3320987654",
          "formattedValue": "4.33"
        },
        {
          "operationId": "Mth_06_02_Mean",
          "resultGroups": [
            {
              "groupingId": "AnlsGrouping_47_Trt01An",
              "groupId": "AnlsGrouping_47_Trt01An_01"
            },
            {
              "groupingId": "AnlsGrouping_48_Param",
              "groupValue": "Protein (g/L)"
            }
          ],
          "rawValue": "70.390243902",
          "formattedValue": "70.4"
        },
        {
          "operationId": "Mth_06_02_Mean",
          "resultGroups": [
            {
              "groupingId": "AnlsGrouping_47_Trt01An",
              "groupId": "AnlsGrouping_47_Trt01An_01"
            },
            {
              "groupingId": "AnlsGrouping_48_Param",
              "groupValue": "Sodium (mmol/L)"
            }
          ],
          "rawValue": "139.96341463",
          "formattedValue": "140.0"
        },
        {
          "operationId": "Mth_06_02_Mean",
          "resultGroups": [
            {
              "groupingId": "AnlsGrouping_47_Trt01An",
              "groupId": "AnlsGrouping_47_Trt01An_01"
            },
            {
              "groupingId": "AnlsGrouping_48_Param",
              "groupValue": "Urate (umol/L)"
            }
          ],
          "rawValue": "300.73668293",
          "formattedValue": "300.7367"
        },
        {
          "operationId": "Mth_06_02_Mean",
          "resultGroups": [
            {
              "groupingId": "AnlsGrouping_47_Trt01An",
              "groupId": "AnlsGrouping_47_Trt01An_02"
            },
            {
              "groupingId": "AnlsGrouping_48_Param",
              "groupValue": "Alanine Aminotransferase (U/L)"
            }
          ],
          "rawValue": "19.202380952",
          "formattedValue": "19.2"
        },
        {
          "operationId": "Mth_06_02_Mean",
          "resultGroups": [
            {
              "groupingId": "AnlsGrouping_47_Trt01An",
              "groupId": "AnlsGrouping_47_Trt01An_02"
            },
            {
              "groupingId": "AnlsGrouping_48_Param",
              "groupValue": "Albumin (g/L)"
            }
          ],
          "rawValue": "40.285714286",
          "formattedValue": "40.3"
        },
        {
          "operationId": "Mth_06_02_Mean",
          "resultGroups": [
            {
              "groupingId": "AnlsGrouping_47_Trt01An",
              "groupId": "AnlsGrouping_47_Trt01An_02"
            },
            {
              "groupingId": "AnlsGrouping_48_Param",
              "groupValue": "Alkaline Phosphatase (U/L)"
            }
          ],
          "rawValue": "71.048192771",
          "formattedValue": "71.0"
        },
        {
          "operationId": "Mth_06_02_Mean",
          "resultGroups": [
            {
              "groupingId": "AnlsGrouping_47_Trt01An",
              "groupId": "AnlsGrouping_47_Trt01An_02"
            },
            {
              "groupingId": "AnlsGrouping_48_Param",
              "groupValue": "Aspartate Aminotransferase (U/L)"
            }
          ],
          "rawValue": "23.107142857",
          "formattedValue": "23.1"
        },
        {
          "operationId": "Mth_06_02_Mean",
          "resultGroups": [
            {
              "groupingId": "AnlsGrouping_47_Trt01An",
              "groupId": "AnlsGrouping_47_Trt01An_02"
            },
            {
              "groupingId": "AnlsGrouping_48_Param",
              "groupValue": "Bilirubin (umol/L)"
            }
          ],
          "rawValue": "11.033571429",
          "formattedValue": "11.034"
        },
        {
          "operationId": "Mth_06_02_Mean",
          "resultGroups": [
            {
              "groupingId": "AnlsGrouping_47_Trt01An",
              "groupId": "AnlsGrouping_47_Trt01An_02"
            },
            {
              "groupingId": "AnlsGrouping_48_Param",
              "groupValue": "Blood Urea Nitrogen (mmol/L)"
            }
          ],
          "rawValue": "5.7545",
          "formattedValue": "5.7545"
        },
        {
          "operationId": "Mth_06_02_Mean",
          "resultGroups": [
            {
              "groupingId": "AnlsGrouping_47_Trt01An",
              "groupId": "AnlsGrouping_47_Trt01An_02"
            },
            {
              "groupingId": "AnlsGrouping_48_Param",
              "groupValue": "Calcium (mmol/L)"
            }
          ],
          "rawValue": "2.3040136905",
          "formattedValue": "2.304014"
        },
        {
          "operationId": "Mth_06_02_Mean",
          "resultGroups": [
            {
              "groupingId": "AnlsGrouping_47_Trt01An",
              "groupId": "AnlsGrouping_47_Trt01An_02"
            },
            {
              "groupingId": "AnlsGrouping_48_Param",
              "groupValue": "Chloride (mmol/L)"
            }
          ],
          "rawValue": "105.44578313",
          "formattedValue": "105.4"
        },
        {
          "operationId": "Mth_06_02_Mean",
          "resultGroups": [
            {
              "groupingId": "AnlsGrouping_47_Trt01An",
              "groupId": "AnlsGrouping_47_Trt01An_02"
            },
            {
              "groupingId": "AnlsGrouping_48_Param",
              "groupValue": "Cholesterol (mmol/L)"
            }
          ],
          "rawValue": "5.7914085714",
          "formattedValue": "5.791409"
        },
        {
          "operationId": "Mth_06_02_Mean",
          "resultGroups": [
            {
              "groupingId": "AnlsGrouping_47_Trt01An",
              "groupId": "AnlsGrouping_47_Trt01An_02"
            },
            {
              "groupingId": "AnlsGrouping_48_Param",
              "groupValue": "Creatine Kinase (U/L)"
            }
          ],
          "rawValue": "103.95238095",
          "formattedValue": "104.0"
        },
        {
          "operationId": "Mth_06_02_Mean",
          "resultGroups": [
            {
              "groupingId": "AnlsGrouping_47_Trt01An",
              "groupId": "AnlsGrouping_47_Trt01An_02"
            },
            {
              "groupingId": "AnlsGrouping_48_Param",
              "groupValue": "Creatinine (umol/L)"
            }
          ],
          "rawValue": "103.65952381",
          "formattedValue": "103.660"
        },
        {
          "operationId": "Mth_06_02_Mean",
          "resultGroups": [
            {
              "groupingId": "AnlsGrouping_47_Trt01An",
              "groupId": "AnlsGrouping_47_Trt01An_02"
            },
            {
              "groupingId": "AnlsGrouping_48_Param",
              "groupValue": "Gamma Glutamyl Transferase (U/L)"
            }
          ],
          "rawValue": "22.845238095",
          "formattedValue": "22.8"
        },
        {
          "operationId": "Mth_06_02_Mean",
          "resultGroups": [
            {
              "groupingId": "AnlsGrouping_47_Trt01An",
              "groupId": "AnlsGrouping_47_Trt01An_02"
            },
            {
              "groupingId": "AnlsGrouping_48_Param",
              "groupValue": "Glucose (mmol/L)"
            }
          ],
          "rawValue": "5.412225",
          "formattedValue": "5.412225"
        },
        {
          "operationId": "Mth_06_02_Mean",
          "resultGroups": [
            {
              "groupingId": "AnlsGrouping_47_Trt01An",
              "groupId": "AnlsGrouping_47_Trt01An_02"
            },
            {
              "groupingId": "AnlsGrouping_48_Param",
              "groupValue": "Phosphate (mmol/L)"
            }
          ],
          "rawValue": "1.1639961446",
          "formattedValue": "1.163996"
        },
        {
          "operationId": "Mth_06_02_Mean",
          "resultGroups": [
            {
              "groupingId": "AnlsGrouping_47_Trt01An",
              "groupId": "AnlsGrouping_47_Trt01An_02"
            },
            {
              "groupingId": "AnlsGrouping_48_Param",
              "groupValue": "Potassium (mmol/L)"
            }
          ],
          "rawValue": "4.3085365854",
          "formattedValue": "4.31"
        },
        {
          "operationId": "Mth_06_02_Mean",
          "resultGroups": [
            {
              "groupingId": "AnlsGrouping_47_Trt01An",
              "groupId": "AnlsGrouping_47_Trt01An_02"
            },
            {
              "groupingId": "AnlsGrouping_48_Param",
              "groupValue": "Protein (g/L)"
            }
          ],
          "rawValue": "71.011904762",
          "formattedValue": "71.0"
        },
        {
          "operationId": "Mth_06_02_Mean",
          "resultGroups": [
            {
              "groupingId": "AnlsGrouping_47_Trt01An",
              "groupId": "AnlsGrouping_47_Trt01An_02"
            },
            {
              "groupingId": "AnlsGrouping_48_Param",
              "groupValue": "Sodium (mmol/L)"
            }
          ],
          "rawValue": "140.01204819",
          "formattedValue": "140.0"
        },
        {
          "operationId": "Mth_06_02_Mean",
          "resultGroups": [
            {
              "groupingId": "AnlsGrouping_47_Trt01An",
              "groupId": "AnlsGrouping_47_Trt01An_02"
            },
            {
              "groupingId": "AnlsGrouping_48_Param",
              "groupValue": "Urate (umol/L)"
            }
          ],
          "rawValue": "302.21504762",
          "formattedValue": "302.2150"
        },
        {
          "operationId": "Mth_06_02_Mean",
          "resultGroups": [
            {
              "groupingId": "AnlsGrouping_47_Trt01An",
              "groupId": "AnlsGrouping_47_Trt01An_03"
            },
            {
              "groupingId": "AnlsGrouping_48_Param",
              "groupValue": "Alanine Aminotransferase (U/L)"
            }
          ],
          "rawValue": "17.569767442",
          "formattedValue": "17.6"
        },
        {
          "operationId": "Mth_06_02_Mean",
          "resultGroups": [
            {
              "groupingId": "AnlsGrouping_47_Trt01An",
              "groupId": "AnlsGrouping_47_Trt01An_03"
            },
            {
              "groupingId": "AnlsGrouping_48_Param",
              "groupValue": "Albumin (g/L)"
            }
          ],
          "rawValue": "39.837209302",
          "formattedValue": "39.8"
        },
        {
          "operationId": "Mth_06_02_Mean",
          "resultGroups": [
            {
              "groupingId": "AnlsGrouping_47_Trt01An",
              "groupId": "AnlsGrouping_47_Trt01An_03"
            },
            {
              "groupingId": "AnlsGrouping_48_Param",
              "groupValue": "Alkaline Phosphatase (U/L)"
            }
          ],
          "rawValue": "77.697674419",
          "formattedValue": "77.7"
        },
        {
          "operationId": "Mth_06_02_Mean",
          "resultGroups": [
            {
              "groupingId": "AnlsGrouping_47_Trt01An",
              "groupId": "AnlsGrouping_47_Trt01An_03"
            },
            {
              "groupingId": "AnlsGrouping_48_Param",
              "groupValue": "Aspartate Aminotransferase (U/L)"
            }
          ],
          "rawValue": "23.244186047",
          "formattedValue": "23.2"
        },
        {
          "operationId": "Mth_06_02_Mean",
          "resultGroups": [
            {
              "groupingId": "AnlsGrouping_47_Trt01An",
              "groupId": "AnlsGrouping_47_Trt01An_03"
            },
            {
              "groupingId": "AnlsGrouping_48_Param",
              "groupValue": "Bilirubin (umol/L)"
            }
          ],
          "rawValue": "9.703255814",
          "formattedValue": "9.703"
        },
        {
          "operationId": "Mth_06_02_Mean",
          "resultGroups": [
            {
              "groupingId": "AnlsGrouping_47_Trt01An",
              "groupId": "AnlsGrouping_47_Trt01An_03"
            },
            {
              "groupingId": "AnlsGrouping_48_Param",
              "groupValue": "Blood Urea Nitrogen (mmol/L)"
            }
          ],
          "rawValue": "5.5376511628",
          "formattedValue": "5.5377"
        },
        {
          "operationId": "Mth_06_02_Mean",
          "resultGroups": [
            {
              "groupingId": "AnlsGrouping_47_Trt01An",
              "groupId": "AnlsGrouping_47_Trt01An_03"
            },
            {
              "groupingId": "AnlsGrouping_48_Param",
              "groupValue": "Calcium (mmol/L)"
            }
          ],
          "rawValue": "2.3122267442",
          "formattedValue": "2.312227"
        },
        {
          "operationId": "Mth_06_02_Mean",
          "resultGroups": [
            {
              "groupingId": "AnlsGrouping_47_Trt01An",
              "groupId": "AnlsGrouping_47_Trt01An_03"
            },
            {
              "groupingId": "AnlsGrouping_48_Param",
              "groupValue": "Chloride (mmol/L)"
            }
          ],
          "rawValue": "105.70930233",
          "formattedValue": "105.7"
        },
        {
          "operationId": "Mth_06_02_Mean",
          "resultGroups": [
            {
              "groupingId": "AnlsGrouping_47_Trt01An",
              "groupId": "AnlsGrouping_47_Trt01An_03"
            },
            {
              "groupingId": "AnlsGrouping_48_Param",
              "groupValue": "Cholesterol (mmol/L)"
            }
          ],
          "rawValue": "5.7571576744",
          "formattedValue": "5.757158"
        },
        {
          "operationId": "Mth_06_02_Mean",
          "resultGroups": [
            {
              "groupingId": "AnlsGrouping_47_Trt01An",
              "groupId": "AnlsGrouping_47_Trt01An_03"
            },
            {
              "groupingId": "AnlsGrouping_48_Param",
              "groupValue": "Creatine Kinase (U/L)"
            }
          ],
          "rawValue": "86.941860465",
          "formattedValue": "86.9"
        },
        {
          "operationId": "Mth_06_02_Mean",
          "resultGroups": [
            {
              "groupingId": "AnlsGrouping_47_Trt01An",
              "groupId": "AnlsGrouping_47_Trt01An_03"
            },
            {
              "groupingId": "AnlsGrouping_48_Param",
              "groupValue": "Creatinine (umol/L)"
            }
          ],
          "rawValue": "97.651162791",
          "formattedValue": "97.651"
        },
        {
          "operationId": "Mth_06_02_Mean",
          "resultGroups": [
            {
              "groupingId": "AnlsGrouping_47_Trt01An",
              "groupId": "AnlsGrouping_47_Trt01An_03"
            },
            {
              "groupingId": "AnlsGrouping_48_Param",
              "groupValue": "Gamma Glutamyl Transferase (U/L)"
            }
          ],
          "rawValue": "24.88372093",
          "formattedValue": "24.9"
        },
        {
          "operationId": "Mth_06_02_Mean",
          "resultGroups": [
            {
              "groupingId": "AnlsGrouping_47_Trt01An",
              "groupId": "AnlsGrouping_47_Trt01An_03"
            },
            {
              "groupingId": "AnlsGrouping_48_Param",
              "groupValue": "Glucose (mmol/L)"
            }
          ],
          "rawValue": "5.6291012791",
          "formattedValue": "5.629101"
        },
        {
          "operationId": "Mth_06_02_Mean",
          "resultGroups": [
            {
              "groupingId": "AnlsGrouping_47_Trt01An",
              "groupId": "AnlsGrouping_47_Trt01An_03"
            },
            {
              "groupingId": "AnlsGrouping_48_Param",
              "groupValue": "Phosphate (mmol/L)"
            }
          ],
          "rawValue": "1.1511760465",
          "formattedValue": "1.151176"
        },
        {
          "operationId": "Mth_06_02_Mean",
          "resultGroups": [
            {
              "groupingId": "AnlsGrouping_47_Trt01An",
              "groupId": "AnlsGrouping_47_Trt01An_03"
            },
            {
              "groupingId": "AnlsGrouping_48_Param",
              "groupValue": "Potassium (mmol/L)"
            }
          ],
          "rawValue": "4.2523255814",
          "formattedValue": "4.25"
        },
        {
          "operationId": "Mth_06_02_Mean",
          "resultGroups": [
            {
              "groupingId": "AnlsGrouping_47_Trt01An",
              "groupId": "AnlsGrouping_47_Trt01An_03"
            },
            {
              "groupingId": "AnlsGrouping_48_Param",
              "groupValue": "Protein (g/L)"
            }
          ],
          "rawValue": "70.511627907",
          "formattedValue": "70.5"
        },
        {
          "operationId": "Mth_06_02_Mean",
          "resultGroups": [
            {
              "groupingId": "AnlsGrouping_47_Trt01An",
              "groupId": "AnlsGrouping_47_Trt01An_03"
            },
            {
              "groupingId": "AnlsGrouping_48_Param",
              "groupValue": "Sodium (mmol/L)"
            }
          ],
          "rawValue": "140.3255814",
          "formattedValue": "140.3"
        },
        {
          "operationId": "Mth_06_02_Mean",
          "resultGroups": [
            {
              "groupingId": "AnlsGrouping_47_Trt01An",
              "groupId": "AnlsGrouping_47_Trt01An_03"
            },
            {
              "groupingId": "AnlsGrouping_48_Param",
              "groupValue": "Urate (umol/L)"
            }
          ],
          "rawValue": "285.01986047",
          "formattedValue": "285.0199"
        },
        {
          "operationId": "Mth_06_03_SD",
          "resultGroups": [
            {
              "groupingId": "AnlsGrouping_47_Trt01An",
              "groupId": "AnlsGrouping_47_Trt01An_01"
            },
            {
              "groupingId": "AnlsGrouping_48_Param",
              "groupValue": "Alanine Aminotransferase (U/L)"
            }
          ],
          "rawValue": "8.7198441513",
          "formattedValue": "(8.72)"
        },
        {
          "operationId": "Mth_06_03_SD",
          "resultGroups": [
            {
              "groupingId": "AnlsGrouping_47_Trt01An",
              "groupId": "AnlsGrouping_47_Trt01An_01"
            },
            {
              "groupingId": "AnlsGrouping_48_Param",
              "groupValue": "Albumin (g/L)"
            }
          ],
          "rawValue": "2.5642305923",
          "formattedValue": "(2.56)"
        },
        {
          "operationId": "Mth_06_03_SD",
          "resultGroups": [
            {
              "groupingId": "AnlsGrouping_47_Trt01An",
              "groupId": "AnlsGrouping_47_Trt01An_01"
            },
            {
              "groupingId": "AnlsGrouping_48_Param",
              "groupValue": "Alkaline Phosphatase (U/L)"
            }
          ],
          "rawValue": "20.720159266",
          "formattedValue": "(20.72)"
        },
        {
          "operationId": "Mth_06_03_SD",
          "resultGroups": [
            {
              "groupingId": "AnlsGrouping_47_Trt01An",
              "groupId": "AnlsGrouping_47_Trt01An_01"
            },
            {
              "groupingId": "AnlsGrouping_48_Param",
              "groupValue": "Aspartate Aminotransferase (U/L)"
            }
          ],
          "rawValue": "8.2373697723",
          "formattedValue": "(8.24)"
        },
        {
          "operationId": "Mth_06_03_SD",
          "resultGroups": [
            {
              "groupingId": "AnlsGrouping_47_Trt01An",
              "groupId": "AnlsGrouping_47_Trt01An_01"
            },
            {
              "groupingId": "AnlsGrouping_48_Param",
              "groupValue": "Bilirubin (umol/L)"
            }
          ],
          "rawValue": "4.0145845394",
          "formattedValue": "(4.0146)"
        },
        {
          "operationId": "Mth_06_03_SD",
          "resultGroups": [
            {
              "groupingId": "AnlsGrouping_47_Trt01An",
              "groupId": "AnlsGrouping_47_Trt01An_01"
            },
            {
              "groupingId": "AnlsGrouping_48_Param",
              "groupValue": "Blood Urea Nitrogen (mmol/L)"
            }
          ],
          "rawValue": "1.9690990016",
          "formattedValue": "(1.96910)"
        },
        {
          "operationId": "Mth_06_03_SD",
          "resultGroups": [
            {
              "groupingId": "AnlsGrouping_47_Trt01An",
              "groupId": "AnlsGrouping_47_Trt01An_01"
            },
            {
              "groupingId": "AnlsGrouping_48_Param",
              "groupValue": "Calcium (mmol/L)"
            }
          ],
          "rawValue": "0.1130716605",
          "formattedValue": "(0.1130717)"
        },
        {
          "operationId": "Mth_06_03_SD",
          "resultGroups": [
            {
              "groupingId": "AnlsGrouping_47_Trt01An",
              "groupId": "AnlsGrouping_47_Trt01An_01"
            },
            {
              "groupingId": "AnlsGrouping_48_Param",
              "groupValue": "Chloride (mmol/L)"
            }
          ],
          "rawValue": "3.2524977084",
          "formattedValue": "(3.25)"
        },
        {
          "operationId": "Mth_06_03_SD",
          "resultGroups": [
            {
              "groupingId": "AnlsGrouping_47_Trt01An",
              "groupId": "AnlsGrouping_47_Trt01An_01"
            },
            {
              "groupingId": "AnlsGrouping_48_Param",
              "groupValue": "Cholesterol (mmol/L)"
            }
          ],
          "rawValue": "0.9958332896",
          "formattedValue": "(0.9958333)"
        },
        {
          "operationId": "Mth_06_03_SD",
          "resultGroups": [
            {
              "groupingId": "AnlsGrouping_47_Trt01An",
              "groupId": "AnlsGrouping_47_Trt01An_01"
            },
            {
              "groupingId": "AnlsGrouping_48_Param",
              "groupValue": "Creatine Kinase (U/L)"
            }
          ],
          "rawValue": "68.867206353",
          "formattedValue": "(68.87)"
        },
        {
          "operationId": "Mth_06_03_SD",
          "resultGroups": [
            {
              "groupingId": "AnlsGrouping_47_Trt01An",
              "groupId": "AnlsGrouping_47_Trt01An_01"
            },
            {
              "groupingId": "AnlsGrouping_48_Param",
              "groupValue": "Creatinine (umol/L)"
            }
          ],
          "rawValue": "20.008799919",
          "formattedValue": "(20.0088)"
        },
        {
          "operationId": "Mth_06_03_SD",
          "resultGroups": [
            {
              "groupingId": "AnlsGrouping_47_Trt01An",
              "groupId": "AnlsGrouping_47_Trt01An_01"
            },
            {
              "groupingId": "AnlsGrouping_48_Param",
              "groupValue": "Gamma Glutamyl Transferase (U/L)"
            }
          ],
          "rawValue": "15.574939529",
          "formattedValue": "(15.57)"
        },
        {
          "operationId": "Mth_06_03_SD",
          "resultGroups": [
            {
              "groupingId": "AnlsGrouping_47_Trt01An",
              "groupId": "AnlsGrouping_47_Trt01An_01"
            },
            {
              "groupingId": "AnlsGrouping_48_Param",
              "groupValue": "Glucose (mmol/L)"
            }
          ],
          "rawValue": "0.9449490479",
          "formattedValue": "(0.9449490)"
        },
        {
          "operationId": "Mth_06_03_SD",
          "resultGroups": [
            {
              "groupingId": "AnlsGrouping_47_Trt01An",
              "groupId": "AnlsGrouping_47_Trt01An_01"
            },
            {
              "groupingId": "AnlsGrouping_48_Param",
              "groupValue": "Phosphate (mmol/L)"
            }
          ],
          "rawValue": "0.1108646555",
          "formattedValue": "(0.1108647)"
        },
        {
          "operationId": "Mth_06_03_SD",
          "resultGroups": [
            {
              "groupingId": "AnlsGrouping_47_Trt01An",
              "groupId": "AnlsGrouping_47_Trt01An_01"
            },
            {
              "groupingId": "AnlsGrouping_48_Param",
              "groupValue": "Potassium (mmol/L)"
            }
          ],
          "rawValue": "0.340157008",
          "formattedValue": "(0.340)"
        },
        {
          "operationId": "Mth_06_03_SD",
          "resultGroups": [
            {
              "groupingId": "AnlsGrouping_47_Trt01An",
              "groupId": "AnlsGrouping_47_Trt01An_01"
            },
            {
              "groupingId": "AnlsGrouping_48_Param",
              "groupValue": "Protein (g/L)"
            }
          ],
          "rawValue": "4.2853644055",
          "formattedValue": "(4.29)"
        },
        {
          "operationId": "Mth_06_03_SD",
          "resultGroups": [
            {
              "groupingId": "AnlsGrouping_47_Trt01An",
              "groupId": "AnlsGrouping_47_Trt01An_01"
            },
            {
              "groupingId": "AnlsGrouping_48_Param",
              "groupValue": "Sodium (mmol/L)"
            }
          ],
          "rawValue": "2.6078945765",
          "formattedValue": "(2.61)"
        },
        {
          "operationId": "Mth_06_03_SD",
          "resultGroups": [
            {
              "groupingId": "AnlsGrouping_47_Trt01An",
              "groupId": "AnlsGrouping_47_Trt01An_01"
            },
            {
              "groupingId": "AnlsGrouping_48_Param",
              "groupValue": "Urate (umol/L)"
            }
          ],
          "rawValue": "77.783548276",
          "formattedValue": "(77.78355)"
        },
        {
          "operationId": "Mth_06_03_SD",
          "resultGroups": [
            {
              "groupingId": "AnlsGrouping_47_Trt01An",
              "groupId": "AnlsGrouping_47_Trt01An_02"
            },
            {
              "groupingId": "AnlsGrouping_48_Param",
              "groupValue": "Alanine Aminotransferase (U/L)"
            }
          ],
          "rawValue": "10.047813119",
          "formattedValue": "(10.05)"
        },
        {
          "operationId": "Mth_06_03_SD",
          "resultGroups": [
            {
              "groupingId": "AnlsGrouping_47_Trt01An",
              "groupId": "AnlsGrouping_47_Trt01An_02"
            },
            {
              "groupingId": "AnlsGrouping_48_Param",
              "groupValue": "Albumin (g/L)"
            }
          ],
          "rawValue": "2.8393594584",
          "formattedValue": "(2.84)"
        },
        {
          "operationId": "Mth_06_03_SD",
          "resultGroups": [
            {
              "groupingId": "AnlsGrouping_47_Trt01An",
              "groupId": "AnlsGrouping_47_Trt01An_02"
            },
            {
              "groupingId": "AnlsGrouping_48_Param",
              "groupValue": "Alkaline Phosphatase (U/L)"
            }
          ],
          "rawValue": "38.848016434",
          "formattedValue": "(38.85)"
        },
        {
          "operationId": "Mth_06_03_SD",
          "resultGroups": [
            {
              "groupingId": "AnlsGrouping_47_Trt01An",
              "groupId": "AnlsGrouping_47_Trt01An_02"
            },
            {
              "groupingId": "AnlsGrouping_48_Param",
              "groupValue": "Aspartate Aminotransferase (U/L)"
            }
          ],
          "rawValue": "6.6114501939",
          "formattedValue": "(6.61)"
        },
        {
          "operationId": "Mth_06_03_SD",
          "resultGroups": [
            {
              "groupingId": "AnlsGrouping_47_Trt01An",
              "groupId": "AnlsGrouping_47_Trt01An_02"
            },
            {
              "groupingId": "AnlsGrouping_48_Param",
              "groupValue": "Bilirubin (umol/L)"
            }
          ],
          "rawValue": "5.3512033649",
          "formattedValue": "(5.3512)"
        },
        {
          "operationId": "Mth_06_03_SD",
          "resultGroups": [
            {
              "groupingId": "AnlsGrouping_47_Trt01An",
              "groupId": "AnlsGrouping_47_Trt01An_02"
            },
            {
              "groupingId": "AnlsGrouping_48_Param",
              "groupValue": "Blood Urea Nitrogen (mmol/L)"
            }
          ],
          "rawValue": "1.8836978597",
          "formattedValue": "(1.88370)"
        },
        {
          "operationId": "Mth_06_03_SD",
          "resultGroups": [
            {
              "groupingId": "AnlsGrouping_47_Trt01An",
              "groupId": "AnlsGrouping_47_Trt01An_02"
            },
            {
              "groupingId": "AnlsGrouping_48_Param",
              "groupValue": "Calcium (mmol/L)"
            }
          ],
          "rawValue": "0.0953805392",
          "formattedValue": "(0.0953805)"
        },
        {
          "operationId": "Mth_06_03_SD",
          "resultGroups": [
            {
              "groupingId": "AnlsGrouping_47_Trt01An",
              "groupId": "AnlsGrouping_47_Trt01An_02"
            },
            {
              "groupingId": "AnlsGrouping_48_Param",
              "groupValue": "Chloride (mmol/L)"
            }
          ],
          "rawValue": "3.332226283",
          "formattedValue": "(3.33)"
        },
        {
          "operationId": "Mth_06_03_SD",
          "resultGroups": [
            {
              "groupingId": "AnlsGrouping_47_Trt01An",
              "groupId": "AnlsGrouping_47_Trt01An_02"
            },
            {
              "groupingId": "AnlsGrouping_48_Param",
              "groupValue": "Cholesterol (mmol/L)"
            }
          ],
          "rawValue": "1.0163421555",
          "formattedValue": "(1.0163422)"
        },
        {
          "operationId": "Mth_06_03_SD",
          "resultGroups": [
            {
              "groupingId": "AnlsGrouping_47_Trt01An",
              "groupId": "AnlsGrouping_47_Trt01An_02"
            },
            {
              "groupingId": "AnlsGrouping_48_Param",
              "groupValue": "Creatine Kinase (U/L)"
            }
          ],
          "rawValue": "71.75055598",
          "formattedValue": "(71.75)"
        },
        {
          "operationId": "Mth_06_03_SD",
          "resultGroups": [
            {
              "groupingId": "AnlsGrouping_47_Trt01An",
              "groupId": "AnlsGrouping_47_Trt01An_02"
            },
            {
              "groupingId": "AnlsGrouping_48_Param",
              "groupValue": "Creatinine (umol/L)"
            }
          ],
          "rawValue": "19.374818081",
          "formattedValue": "(19.3748)"
        },
        {
          "operationId": "Mth_06_03_SD",
          "resultGroups": [
            {
              "groupingId": "AnlsGrouping_47_Trt01An",
              "groupId": "AnlsGrouping_47_Trt01An_02"
            },
            {
              "groupingId": "AnlsGrouping_48_Param",
              "groupValue": "Gamma Glutamyl Transferase (U/L)"
            }
          ],
          "rawValue": "17.70745813",
          "formattedValue": "(17.71)"
        },
        {
          "operationId": "Mth_06_03_SD",
          "resultGroups": [
            {
              "groupingId": "AnlsGrouping_47_Trt01An",
              "groupId": "AnlsGrouping_47_Trt01An_02"
            },
            {
              "groupingId": "AnlsGrouping_48_Param",
              "groupValue": "Glucose (mmol/L)"
            }
          ],
          "rawValue": "1.3446800294",
          "formattedValue": "(1.3446800)"
        },
        {
          "operationId": "Mth_06_03_SD",
          "resultGroups": [
            {
              "groupingId": "AnlsGrouping_47_Trt01An",
              "groupId": "AnlsGrouping_47_Trt01An_02"
            },
            {
              "groupingId": "AnlsGrouping_48_Param",
              "groupValue": "Phosphate (mmol/L)"
            }
          ],
          "rawValue": "0.1477911171",
          "formattedValue": "(0.1477911)"
        },
        {
          "operationId": "Mth_06_03_SD",
          "resultGroups": [
            {
              "groupingId": "AnlsGrouping_47_Trt01An",
              "groupId": "AnlsGrouping_47_Trt01An_02"
            },
            {
              "groupingId": "AnlsGrouping_48_Param",
              "groupValue": "Potassium (mmol/L)"
            }
          ],
          "rawValue": "0.4061870941",
          "formattedValue": "(0.406)"
        },
        {
          "operationId": "Mth_06_03_SD",
          "resultGroups": [
            {
              "groupingId": "AnlsGrouping_47_Trt01An",
              "groupId": "AnlsGrouping_47_Trt01An_02"
            },
            {
              "groupingId": "AnlsGrouping_48_Param",
              "groupValue": "Protein (g/L)"
            }
          ],
          "rawValue": "4.2440434449",
          "formattedValue": "(4.24)"
        },
        {
          "operationId": "Mth_06_03_SD",
          "resultGroups": [
            {
              "groupingId": "AnlsGrouping_47_Trt01An",
              "groupId": "AnlsGrouping_47_Trt01An_02"
            },
            {
              "groupingId": "AnlsGrouping_48_Param",
              "groupValue": "Sodium (mmol/L)"
            }
          ],
          "rawValue": "3.1097563857",
          "formattedValue": "(3.11)"
        },
        {
          "operationId": "Mth_06_03_SD",
          "resultGroups": [
            {
              "groupingId": "AnlsGrouping_47_Trt01An",
              "groupId": "AnlsGrouping_47_Trt01An_02"
            },
            {
              "groupingId": "AnlsGrouping_48_Param",
              "groupValue": "Urate (umol/L)"
            }
          ],
          "rawValue": "78.009890654",
          "formattedValue": "(78.00989)"
        },
        {
          "operationId": "Mth_06_03_SD",
          "resultGroups": [
            {
              "groupingId": "AnlsGrouping_47_Trt01An",
              "groupId": "AnlsGrouping_47_Trt01An_03"
            },
            {
              "groupingId": "AnlsGrouping_48_Param",
              "groupValue": "Alanine Aminotransferase (U/L)"
            }
          ],
          "rawValue": "9.2157674318",
          "formattedValue": "(9.22)"
        },
        {
          "operationId": "Mth_06_03_SD",
          "resultGroups": [
            {
              "groupingId": "AnlsGrouping_47_Trt01An",
              "groupId": "AnlsGrouping_47_Trt01An_03"
            },
            {
              "groupingId": "AnlsGrouping_48_Param",
              "groupValue": "Albumin (g/L)"
            }
          ],
          "rawValue": "2.8069680738",
          "formattedValue": "(2.81)"
        },
        {
          "operationId": "Mth_06_03_SD",
          "resultGroups": [
            {
              "groupingId": "AnlsGrouping_47_Trt01An",
              "groupId": "AnlsGrouping_47_Trt01An_03"
            },
            {
              "groupingId": "AnlsGrouping_48_Param",
              "groupValue": "Alkaline Phosphatase (U/L)"
            }
          ],
          "rawValue": "58.106002478",
          "formattedValue": "(58.11)"
        },
        {
          "operationId": "Mth_06_03_SD",
          "resultGroups": [
            {
              "groupingId": "AnlsGrouping_47_Trt01An",
              "groupId": "AnlsGrouping_47_Trt01An_03"
            },
            {
              "groupingId": "AnlsGrouping_48_Param",
              "groupValue": "Aspartate Aminotransferase (U/L)"
            }
          ],
          "rawValue": "7.5020562617",
          "formattedValue": "(7.50)"
        },
        {
          "operationId": "Mth_06_03_SD",
          "resultGroups": [
            {
              "groupingId": "AnlsGrouping_47_Trt01An",
              "groupId": "AnlsGrouping_47_Trt01An_03"
            },
            {
              "groupingId": "AnlsGrouping_48_Param",
              "groupValue": "Bilirubin (umol/L)"
            }
          ],
          "rawValue": "3.964509744",
          "formattedValue": "(3.9645)"
        },
        {
          "operationId": "Mth_06_03_SD",
          "resultGroups": [
            {
              "groupingId": "AnlsGrouping_47_Trt01An",
              "groupId": "AnlsGrouping_47_Trt01An_03"
            },
            {
              "groupingId": "AnlsGrouping_48_Param",
              "groupValue": "Blood Urea Nitrogen (mmol/L)"
            }
          ],
          "rawValue": "1.3850865912",
          "formattedValue": "(1.38509)"
        },
        {
          "operationId": "Mth_06_03_SD",
          "resultGroups": [
            {
              "groupingId": "AnlsGrouping_47_Trt01An",
              "groupId": "AnlsGrouping_47_Trt01An_03"
            },
            {
              "groupingId": "AnlsGrouping_48_Param",
              "groupValue": "Calcium (mmol/L)"
            }
          ],
          "rawValue": "0.0949444539",
          "formattedValue": "(0.0949445)"
        },
        {
          "operationId": "Mth_06_03_SD",
          "resultGroups": [
            {
              "groupingId": "AnlsGrouping_47_Trt01An",
              "groupId": "AnlsGrouping_47_Trt01An_03"
            },
            {
              "groupingId": "AnlsGrouping_48_Param",
              "groupValue": "Chloride (mmol/L)"
            }
          ],
          "rawValue": "3.1914086105",
          "formattedValue": "(3.19)"
        },
        {
          "operationId": "Mth_06_03_SD",
          "resultGroups": [
            {
              "groupingId": "AnlsGrouping_47_Trt01An",
              "groupId": "AnlsGrouping_47_Trt01An_03"
            },
            {
              "groupingId": "AnlsGrouping_48_Param",
              "groupValue": "Cholesterol (mmol/L)"
            }
          ],
          "rawValue": "1.0748852055",
          "formattedValue": "(1.0748852)"
        },
        {
          "operationId": "Mth_06_03_SD",
          "resultGroups": [
            {
              "groupingId": "AnlsGrouping_47_Trt01An",
              "groupId": "AnlsGrouping_47_Trt01An_03"
            },
            {
              "groupingId": "AnlsGrouping_48_Param",
              "groupValue": "Creatine Kinase (U/L)"
            }
          ],
          "rawValue": "43.711986417",
          "formattedValue": "(43.71)"
        },
        {
          "operationId": "Mth_06_03_SD",
          "resultGroups": [
            {
              "groupingId": "AnlsGrouping_47_Trt01An",
              "groupId": "AnlsGrouping_47_Trt01An_03"
            },
            {
              "groupingId": "AnlsGrouping_48_Param",
              "groupValue": "Creatinine (umol/L)"
            }
          ],
          "rawValue": "17.77888625",
          "formattedValue": "(17.7789)"
        },
        {
          "operationId": "Mth_06_03_SD",
          "resultGroups": [
            {
              "groupingId": "AnlsGrouping_47_Trt01An",
              "groupId": "AnlsGrouping_47_Trt01An_03"
            },
            {
              "groupingId": "AnlsGrouping_48_Param",
              "groupValue": "Gamma Glutamyl Transferase (U/L)"
            }
          ],
          "rawValue": "49.746514771",
          "formattedValue": "(49.75)"
        },
        {
          "operationId": "Mth_06_03_SD",
          "resultGroups": [
            {
              "groupingId": "AnlsGrouping_47_Trt01An",
              "groupId": "AnlsGrouping_47_Trt01An_03"
            },
            {
              "groupingId": "AnlsGrouping_48_Param",
              "groupValue": "Glucose (mmol/L)"
            }
          ],
          "rawValue": "2.1417058138",
          "formattedValue": "(2.1417058)"
        },
        {
          "operationId": "Mth_06_03_SD",
          "resultGroups": [
            {
              "groupingId": "AnlsGrouping_47_Trt01An",
              "groupId": "AnlsGrouping_47_Trt01An_03"
            },
            {
              "groupingId": "AnlsGrouping_48_Param",
              "groupValue": "Phosphate (mmol/L)"
            }
          ],
          "rawValue": "0.1474953911",
          "formattedValue": "(0.1474954)"
        },
        {
          "operationId": "Mth_06_03_SD",
          "resultGroups": [
            {
              "groupingId": "AnlsGrouping_47_Trt01An",
              "groupId": "AnlsGrouping_47_Trt01An_03"
            },
            {
              "groupingId": "AnlsGrouping_48_Param",
              "groupValue": "Potassium (mmol/L)"
            }
          ],
          "rawValue": "0.4250195135",
          "formattedValue": "(0.425)"
        },
        {
          "operationId": "Mth_06_03_SD",
          "resultGroups": [
            {
              "groupingId": "AnlsGrouping_47_Trt01An",
              "groupId": "AnlsGrouping_47_Trt01An_03"
            },
            {
              "groupingId": "AnlsGrouping_48_Param",
              "groupValue": "Protein (g/L)"
            }
          ],
          "rawValue": "4.7197811167",
          "formattedValue": "(4.72)"
        },
        {
          "operationId": "Mth_06_03_SD",
          "resultGroups": [
            {
              "groupingId": "AnlsGrouping_47_Trt01An",
              "groupId": "AnlsGrouping_47_Trt01An_03"
            },
            {
              "groupingId": "AnlsGrouping_48_Param",
              "groupValue": "Sodium (mmol/L)"
            }
          ],
          "rawValue": "2.7372887422",
          "formattedValue": "(2.74)"
        },
        {
          "operationId": "Mth_06_03_SD",
          "resultGroups": [
            {
              "groupingId": "AnlsGrouping_47_Trt01An",
              "groupId": "AnlsGrouping_47_Trt01An_03"
            },
            {
              "groupingId": "AnlsGrouping_48_Param",
              "groupValue": "Urate (umol/L)"
            }
          ],
          "rawValue": "74.448406417",
          "formattedValue": "(74.44841)"
        },
        {
          "operationId": "Mth_06_04_Median",
          "resultGroups": [
            {
              "groupingId": "AnlsGrouping_47_Trt01An",
              "groupId": "AnlsGrouping_47_Trt01An_01"
            },
            {
              "groupingId": "AnlsGrouping_48_Param",
              "groupValue": "Alanine Aminotransferase (U/L)"
            }
          ],
          "rawValue": "17",
          "formattedValue": "17.0"
        },
        {
          "operationId": "Mth_06_04_Median",
          "resultGroups": [
            {
              "groupingId": "AnlsGrouping_47_Trt01An",
              "groupId": "AnlsGrouping_47_Trt01An_01"
            },
            {
              "groupingId": "AnlsGrouping_48_Param",
              "groupValue": "Albumin (g/L)"
            }
          ],
          "rawValue": "40",
          "formattedValue": "40.0"
        },
        {
          "operationId": "Mth_06_04_Median",
          "resultGroups": [
            {
              "groupingId": "AnlsGrouping_47_Trt01An",
              "groupId": "AnlsGrouping_47_Trt01An_01"
            },
            {
              "groupingId": "AnlsGrouping_48_Param",
              "groupValue": "Alkaline Phosphatase (U/L)"
            }
          ],
          "rawValue": "72",
          "formattedValue": "72.0"
        },
        {
          "operationId": "Mth_06_04_Median",
          "resultGroups": [
            {
              "groupingId": "AnlsGrouping_47_Trt01An",
              "groupId": "AnlsGrouping_47_Trt01An_01"
            },
            {
              "groupingId": "AnlsGrouping_48_Param",
              "groupValue": "Aspartate Aminotransferase (U/L)"
            }
          ],
          "rawValue": "21",
          "formattedValue": "21.0"
        },
        {
          "operationId": "Mth_06_04_Median",
          "resultGroups": [
            {
              "groupingId": "AnlsGrouping_47_Trt01An",
              "groupId": "AnlsGrouping_47_Trt01An_01"
            },
            {
              "groupingId": "AnlsGrouping_48_Param",
              "groupValue": "Bilirubin (umol/L)"
            }
          ],
          "rawValue": "8.55",
          "formattedValue": "8.550"
        },
        {
          "operationId": "Mth_06_04_Median",
          "resultGroups": [
            {
              "groupingId": "AnlsGrouping_47_Trt01An",
              "groupId": "AnlsGrouping_47_Trt01An_01"
            },
            {
              "groupingId": "AnlsGrouping_48_Param",
              "groupValue": "Blood Urea Nitrogen (mmol/L)"
            }
          ],
          "rawValue": "6.069",
          "formattedValue": "6.0690"
        },
        {
          "operationId": "Mth_06_04_Median",
          "resultGroups": [
            {
              "groupingId": "AnlsGrouping_47_Trt01An",
              "groupId": "AnlsGrouping_47_Trt01An_01"
            },
            {
              "groupingId": "AnlsGrouping_48_Param",
              "groupValue": "Calcium (mmol/L)"
            }
          ],
          "rawValue": "2.27045",
          "formattedValue": "2.270450"
        },
        {
          "operationId": "Mth_06_04_Median",
          "resultGroups": [
            {
              "groupingId": "AnlsGrouping_47_Trt01An",
              "groupId": "AnlsGrouping_47_Trt01An_01"
            },
            {
              "groupingId": "AnlsGrouping_48_Param",
              "groupValue": "Chloride (mmol/L)"
            }
          ],
          "rawValue": "106",
          "formattedValue": "106.0"
        },
        {
          "operationId": "Mth_06_04_Median",
          "resultGroups": [
            {
              "groupingId": "AnlsGrouping_47_Trt01An",
              "groupId": "AnlsGrouping_47_Trt01An_01"
            },
            {
              "groupingId": "AnlsGrouping_48_Param",
              "groupValue": "Cholesterol (mmol/L)"
            }
          ],
          "rawValue": "5.50818",
          "formattedValue": "5.508180"
        },
        {
          "operationId": "Mth_06_04_Median",
          "resultGroups": [
            {
              "groupingId": "AnlsGrouping_47_Trt01An",
              "groupId": "AnlsGrouping_47_Trt01An_01"
            },
            {
              "groupingId": "AnlsGrouping_48_Param",
              "groupValue": "Creatine Kinase (U/L)"
            }
          ],
          "rawValue": "83.5",
          "formattedValue": "83.5"
        },
        {
          "operationId": "Mth_06_04_Median",
          "resultGroups": [
            {
              "groupingId": "AnlsGrouping_47_Trt01An",
              "groupId": "AnlsGrouping_47_Trt01An_01"
            },
            {
              "groupingId": "AnlsGrouping_48_Param",
              "groupValue": "Creatinine (umol/L)"
            }
          ],
          "rawValue": "97.24",
          "formattedValue": "97.240"
        },
        {
          "operationId": "Mth_06_04_Median",
          "resultGroups": [
            {
              "groupingId": "AnlsGrouping_47_Trt01An",
              "groupId": "AnlsGrouping_47_Trt01An_01"
            },
            {
              "groupingId": "AnlsGrouping_48_Param",
              "groupValue": "Gamma Glutamyl Transferase (U/L)"
            }
          ],
          "rawValue": "19",
          "formattedValue": "19.0"
        },
        {
          "operationId": "Mth_06_04_Median",
          "resultGroups": [
            {
              "groupingId": "AnlsGrouping_47_Trt01An",
              "groupId": "AnlsGrouping_47_Trt01An_01"
            },
            {
              "groupingId": "AnlsGrouping_48_Param",
              "groupValue": "Glucose (mmol/L)"
            }
          ],
          "rawValue": "5.16243",
          "formattedValue": "5.162430"
        },
        {
          "operationId": "Mth_06_04_Median",
          "resultGroups": [
            {
              "groupingId": "AnlsGrouping_47_Trt01An",
              "groupId": "AnlsGrouping_47_Trt01An_01"
            },
            {
              "groupingId": "AnlsGrouping_48_Param",
              "groupValue": "Phosphate (mmol/L)"
            }
          ],
          "rawValue": "1.16244",
          "formattedValue": "1.162440"
        },
        {
          "operationId": "Mth_06_04_Median",
          "resultGroups": [
            {
              "groupingId": "AnlsGrouping_47_Trt01An",
              "groupId": "AnlsGrouping_47_Trt01An_01"
            },
            {
              "groupingId": "AnlsGrouping_48_Param",
              "groupValue": "Potassium (mmol/L)"
            }
          ],
          "rawValue": "4.3",
          "formattedValue": "4.30"
        },
        {
          "operationId": "Mth_06_04_Median",
          "resultGroups": [
            {
              "groupingId": "AnlsGrouping_47_Trt01An",
              "groupId": "AnlsGrouping_47_Trt01An_01"
            },
            {
              "groupingId": "AnlsGrouping_48_Param",
              "groupValue": "Protein (g/L)"
            }
          ],
          "rawValue": "70",
          "formattedValue": "70.0"
        },
        {
          "operationId": "Mth_06_04_Median",
          "resultGroups": [
            {
              "groupingId": "AnlsGrouping_47_Trt01An",
              "groupId": "AnlsGrouping_47_Trt01An_01"
            },
            {
              "groupingId": "AnlsGrouping_48_Param",
              "groupValue": "Sodium (mmol/L)"
            }
          ],
          "rawValue": "140",
          "formattedValue": "140.0"
        },
        {
          "operationId": "Mth_06_04_Median",
          "resultGroups": [
            {
              "groupingId": "AnlsGrouping_47_Trt01An",
              "groupId": "AnlsGrouping_47_Trt01An_01"
            },
            {
              "groupingId": "AnlsGrouping_48_Param",
              "groupValue": "Urate (umol/L)"
            }
          ],
          "rawValue": "297.4",
          "formattedValue": "297.4000"
        },
        {
          "operationId": "Mth_06_04_Median",
          "resultGroups": [
            {
              "groupingId": "AnlsGrouping_47_Trt01An",
              "groupId": "AnlsGrouping_47_Trt01An_02"
            },
            {
              "groupingId": "AnlsGrouping_48_Param",
              "groupValue": "Alanine Aminotransferase (U/L)"
            }
          ],
          "rawValue": "16",
          "formattedValue": "16.0"
        },
        {
          "operationId": "Mth_06_04_Median",
          "resultGroups": [
            {
              "groupingId": "AnlsGrouping_47_Trt01An",
              "groupId": "AnlsGrouping_47_Trt01An_02"
            },
            {
              "groupingId": "AnlsGrouping_48_Param",
              "groupValue": "Albumin (g/L)"
            }
          ],
          "rawValue": "40",
          "formattedValue": "40.0"
        },
        {
          "operationId": "Mth_06_04_Median",
          "resultGroups": [
            {
              "groupingId": "AnlsGrouping_47_Trt01An",
              "groupId": "AnlsGrouping_47_Trt01An_02"
            },
            {
              "groupingId": "AnlsGrouping_48_Param",
              "groupValue": "Alkaline Phosphatase (U/L)"
            }
          ],
          "rawValue": "66",
          "formattedValue": "66.0"
        },
        {
          "operationId": "Mth_06_04_Median",
          "resultGroups": [
            {
              "groupingId": "AnlsGrouping_47_Trt01An",
              "groupId": "AnlsGrouping_47_Trt01An_02"
            },
            {
              "groupingId": "AnlsGrouping_48_Param",
              "groupValue": "Aspartate Aminotransferase (U/L)"
            }
          ],
          "rawValue": "21",
          "formattedValue": "21.0"
        },
        {
          "operationId": "Mth_06_04_Median",
          "resultGroups": [
            {
              "groupingId": "AnlsGrouping_47_Trt01An",
              "groupId": "AnlsGrouping_47_Trt01An_02"
            },
            {
              "groupingId": "AnlsGrouping_48_Param",
              "groupValue": "Bilirubin (umol/L)"
            }
          ],
          "rawValue": "10.26",
          "formattedValue": "10.260"
        },
        {
          "operationId": "Mth_06_04_Median",
          "resultGroups": [
            {
              "groupingId": "AnlsGrouping_47_Trt01An",
              "groupId": "AnlsGrouping_47_Trt01An_02"
            },
            {
              "groupingId": "AnlsGrouping_48_Param",
              "groupValue": "Blood Urea Nitrogen (mmol/L)"
            }
          ],
          "rawValue": "5.712",
          "formattedValue": "5.7120"
        },
        {
          "operationId": "Mth_06_04_Median",
          "resultGroups": [
            {
              "groupingId": "AnlsGrouping_47_Trt01An",
              "groupId": "AnlsGrouping_47_Trt01An_02"
            },
            {
              "groupingId": "AnlsGrouping_48_Param",
              "groupValue": "Calcium (mmol/L)"
            }
          ],
          "rawValue": "2.32035",
          "formattedValue": "2.320350"
        },
        {
          "operationId": "Mth_06_04_Median",
          "resultGroups": [
            {
              "groupingId": "AnlsGrouping_47_Trt01An",
              "groupId": "AnlsGrouping_47_Trt01An_02"
            },
            {
              "groupingId": "AnlsGrouping_48_Param",
              "groupValue": "Chloride (mmol/L)"
            }
          ],
          "rawValue": "105",
          "formattedValue": "105.0"
        },
        {
          "operationId": "Mth_06_04_Median",
          "resultGroups": [
            {
              "groupingId": "AnlsGrouping_47_Trt01An",
              "groupId": "AnlsGrouping_47_Trt01An_02"
            },
            {
              "groupingId": "AnlsGrouping_48_Param",
              "groupValue": "Cholesterol (mmol/L)"
            }
          ],
          "rawValue": "5.6892",
          "formattedValue": "5.689200"
        },
        {
          "operationId": "Mth_06_04_Median",
          "resultGroups": [
            {
              "groupingId": "AnlsGrouping_47_Trt01An",
              "groupId": "AnlsGrouping_47_Trt01An_02"
            },
            {
              "groupingId": "AnlsGrouping_48_Param",
              "groupValue": "Creatine Kinase (U/L)"
            }
          ],
          "rawValue": "83.5",
          "formattedValue": "83.5"
        },
        {
          "operationId": "Mth_06_04_Median",
          "resultGroups": [
            {
              "groupingId": "AnlsGrouping_47_Trt01An",
              "groupId": "AnlsGrouping_47_Trt01An_02"
            },
            {
              "groupingId": "AnlsGrouping_48_Param",
              "groupValue": "Creatinine (umol/L)"
            }
          ],
          "rawValue": "101.66",
          "formattedValue": "101.660"
        },
        {
          "operationId": "Mth_06_04_Median",
          "resultGroups": [
            {
              "groupingId": "AnlsGrouping_47_Trt01An",
              "groupId": "AnlsGrouping_47_Trt01An_02"
            },
            {
              "groupingId": "AnlsGrouping_48_Param",
              "groupValue": "Gamma Glutamyl Transferase (U/L)"
            }
          ],
          "rawValue": "18",
          "formattedValue": "18.0"
        },
        {
          "operationId": "Mth_06_04_Median",
          "resultGroups": [
            {
              "groupingId": "AnlsGrouping_47_Trt01An",
              "groupId": "AnlsGrouping_47_Trt01An_02"
            },
            {
              "groupingId": "AnlsGrouping_48_Param",
              "groupValue": "Glucose (mmol/L)"
            }
          ],
          "rawValue": "5.05141",
          "formattedValue": "5.051410"
        },
        {
          "operationId": "Mth_06_04_Median",
          "resultGroups": [
            {
              "groupingId": "AnlsGrouping_47_Trt01An",
              "groupId": "AnlsGrouping_47_Trt01An_02"
            },
            {
              "groupingId": "AnlsGrouping_48_Param",
              "groupValue": "Phosphate (mmol/L)"
            }
          ],
          "rawValue": "1.16244",
          "formattedValue": "1.162440"
        },
        {
          "operationId": "Mth_06_04_Median",
          "resultGroups": [
            {
              "groupingId": "AnlsGrouping_47_Trt01An",
              "groupId": "AnlsGrouping_47_Trt01An_02"
            },
            {
              "groupingId": "AnlsGrouping_48_Param",
              "groupValue": "Potassium (mmol/L)"
            }
          ],
          "rawValue": "4.3",
          "formattedValue": "4.30"
        },
        {
          "operationId": "Mth_06_04_Median",
          "resultGroups": [
            {
              "groupingId": "AnlsGrouping_47_Trt01An",
              "groupId": "AnlsGrouping_47_Trt01An_02"
            },
            {
              "groupingId": "AnlsGrouping_48_Param",
              "groupValue": "Protein (g/L)"
            }
          ],
          "rawValue": "71",
          "formattedValue": "71.0"
        },
        {
          "operationId": "Mth_06_04_Median",
          "resultGroups": [
            {
              "groupingId": "AnlsGrouping_47_Trt01An",
              "groupId": "AnlsGrouping_47_Trt01An_02"
            },
            {
              "groupingId": "AnlsGrouping_48_Param",
              "groupValue": "Sodium (mmol/L)"
            }
          ],
          "rawValue": "140",
          "formattedValue": "140.0"
        },
        {
          "operationId": "Mth_06_04_Median",
          "resultGroups": [
            {
              "groupingId": "AnlsGrouping_47_Trt01An",
              "groupId": "AnlsGrouping_47_Trt01An_02"
            },
            {
              "groupingId": "AnlsGrouping_48_Param",
              "groupValue": "Urate (umol/L)"
            }
          ],
          "rawValue": "291.452",
          "formattedValue": "291.4520"
        },
        {
          "operationId": "Mth_06_04_Median",
          "resultGroups": [
            {
              "groupingId": "AnlsGrouping_47_Trt01An",
              "groupId": "AnlsGrouping_47_Trt01An_03"
            },
            {
              "groupingId": "AnlsGrouping_48_Param",
              "groupValue": "Alanine Aminotransferase (U/L)"
            }
          ],
          "rawValue": "15",
          "formattedValue": "15.0"
        },
        {
          "operationId": "Mth_06_04_Median",
          "resultGroups": [
            {
              "groupingId": "AnlsGrouping_47_Trt01An",
              "groupId": "AnlsGrouping_47_Trt01An_03"
            },
            {
              "groupingId": "AnlsGrouping_48_Param",
              "groupValue": "Albumin (g/L)"
            }
          ],
          "rawValue": "40",
          "formattedValue": "40.0"
        },
        {
          "operationId": "Mth_06_04_Median",
          "resultGroups": [
            {
              "groupingId": "AnlsGrouping_47_Trt01An",
              "groupId": "AnlsGrouping_47_Trt01An_03"
            },
            {
              "groupingId": "AnlsGrouping_48_Param",
              "groupValue": "Alkaline Phosphatase (U/L)"
            }
          ],
          "rawValue": "70",
          "formattedValue": "70.0"
        },
        {
          "operationId": "Mth_06_04_Median",
          "resultGroups": [
            {
              "groupingId": "AnlsGrouping_47_Trt01An",
              "groupId": "AnlsGrouping_47_Trt01An_03"
            },
            {
              "groupingId": "AnlsGrouping_48_Param",
              "groupValue": "Aspartate Aminotransferase (U/L)"
            }
          ],
          "rawValue": "22",
          "formattedValue": "22.0"
        },
        {
          "operationId": "Mth_06_04_Median",
          "resultGroups": [
            {
              "groupingId": "AnlsGrouping_47_Trt01An",
              "groupId": "AnlsGrouping_47_Trt01An_03"
            },
            {
              "groupingId": "AnlsGrouping_48_Param",
              "groupValue": "Bilirubin (umol/L)"
            }
          ],
          "rawValue": "8.55",
          "formattedValue": "8.550"
        },
        {
          "operationId": "Mth_06_04_Median",
          "resultGroups": [
            {
              "groupingId": "AnlsGrouping_47_Trt01An",
              "groupId": "AnlsGrouping_47_Trt01An_03"
            },
            {
              "groupingId": "AnlsGrouping_48_Param",
              "groupValue": "Blood Urea Nitrogen (mmol/L)"
            }
          ],
          "rawValue": "5.355",
          "formattedValue": "5.3550"
        },
        {
          "operationId": "Mth_06_04_Median",
          "resultGroups": [
            {
              "groupingId": "AnlsGrouping_47_Trt01An",
              "groupId": "AnlsGrouping_47_Trt01An_03"
            },
            {
              "groupingId": "AnlsGrouping_48_Param",
              "groupValue": "Calcium (mmol/L)"
            }
          ],
          "rawValue": "2.2954",
          "formattedValue": "2.295400"
        },
        {
          "operationId": "Mth_06_04_Median",
          "resultGroups": [
            {
              "groupingId": "AnlsGrouping_47_Trt01An",
              "groupId": "AnlsGrouping_47_Trt01An_03"
            },
            {
              "groupingId": "AnlsGrouping_48_Param",
              "groupValue": "Chloride (mmol/L)"
            }
          ],
          "rawValue": "106",
          "formattedValue": "106.0"
        },
        {
          "operationId": "Mth_06_04_Median",
          "resultGroups": [
            {
              "groupingId": "AnlsGrouping_47_Trt01An",
              "groupId": "AnlsGrouping_47_Trt01An_03"
            },
            {
              "groupingId": "AnlsGrouping_48_Param",
              "groupValue": "Cholesterol (mmol/L)"
            }
          ],
          "rawValue": "5.70213",
          "formattedValue": "5.702130"
        },
        {
          "operationId": "Mth_06_04_Median",
          "resultGroups": [
            {
              "groupingId": "AnlsGrouping_47_Trt01An",
              "groupId": "AnlsGrouping_47_Trt01An_03"
            },
            {
              "groupingId": "AnlsGrouping_48_Param",
              "groupValue": "Creatine Kinase (U/L)"
            }
          ],
          "rawValue": "80",
          "formattedValue": "80.0"
        },
        {
          "operationId": "Mth_06_04_Median",
          "resultGroups": [
            {
              "groupingId": "AnlsGrouping_47_Trt01An",
              "groupId": "AnlsGrouping_47_Trt01An_03"
            },
            {
              "groupingId": "AnlsGrouping_48_Param",
              "groupValue": "Creatinine (umol/L)"
            }
          ],
          "rawValue": "97.24",
          "formattedValue": "97.240"
        },
        {
          "operationId": "Mth_06_04_Median",
          "resultGroups": [
            {
              "groupingId": "AnlsGrouping_47_Trt01An",
              "groupId": "AnlsGrouping_47_Trt01An_03"
            },
            {
              "groupingId": "AnlsGrouping_48_Param",
              "groupValue": "Gamma Glutamyl Transferase (U/L)"
            }
          ],
          "rawValue": "16",
          "formattedValue": "16.0"
        },
        {
          "operationId": "Mth_06_04_Median",
          "resultGroups": [
            {
              "groupingId": "AnlsGrouping_47_Trt01An",
              "groupId": "AnlsGrouping_47_Trt01An_03"
            },
            {
              "groupingId": "AnlsGrouping_48_Param",
              "groupValue": "Glucose (mmol/L)"
            }
          ],
          "rawValue": "5.21794",
          "formattedValue": "5.217940"
        },
        {
          "operationId": "Mth_06_04_Median",
          "resultGroups": [
            {
              "groupingId": "AnlsGrouping_47_Trt01An",
              "groupId": "AnlsGrouping_47_Trt01An_03"
            },
            {
              "groupingId": "AnlsGrouping_48_Param",
              "groupValue": "Phosphate (mmol/L)"
            }
          ],
          "rawValue": "1.16244",
          "formattedValue": "1.162440"
        },
        {
          "operationId": "Mth_06_04_Median",
          "resultGroups": [
            {
              "groupingId": "AnlsGrouping_47_Trt01An",
              "groupId": "AnlsGrouping_47_Trt01An_03"
            },
            {
              "groupingId": "AnlsGrouping_48_Param",
              "groupValue": "Potassium (mmol/L)"
            }
          ],
          "rawValue": "4.3",
          "formattedValue": "4.30"
        },
        {
          "operationId": "Mth_06_04_Median",
          "resultGroups": [
            {
              "groupingId": "AnlsGrouping_47_Trt01An",
              "groupId": "AnlsGrouping_47_Trt01An_03"
            },
            {
              "groupingId": "AnlsGrouping_48_Param",
              "groupValue": "Protein (g/L)"
            }
          ],
          "rawValue": "70.5",
          "formattedValue": "70.5"
        },
        {
          "operationId": "Mth_06_04_Median",
          "resultGroups": [
            {
              "groupingId": "AnlsGrouping_47_Trt01An",
              "groupId": "AnlsGrouping_47_Trt01An_03"
            },
            {
              "groupingId": "AnlsGrouping_48_Param",
              "groupValue": "Sodium (mmol/L)"
            }
          ],
          "rawValue": "140",
          "formattedValue": "140.0"
        },
        {
          "operationId": "Mth_06_04_Median",
          "resultGroups": [
            {
              "groupingId": "AnlsGrouping_47_Trt01An",
              "groupId": "AnlsGrouping_47_Trt01An_03"
            },
            {
              "groupingId": "AnlsGrouping_48_Param",
              "groupValue": "Urate (umol/L)"
            }
          ],
          "rawValue": "279.556",
          "formattedValue": "279.5560"
        },
        {
          "operationId": "Mth_06_07_Min",
          "resultGroups": [
            {
              "groupingId": "AnlsGrouping_47_Trt01An",
              "groupId": "AnlsGrouping_47_Trt01An_01"
            },
            {
              "groupingId": "AnlsGrouping_48_Param",
              "groupValue": "Alanine Aminotransferase (U/L)"
            }
          ],
          "rawValue": "5",
          "formattedValue": "5"
        },
        {
          "operationId": "Mth_06_07_Min",
          "resultGroups": [
            {
              "groupingId": "AnlsGrouping_47_Trt01An",
              "groupId": "AnlsGrouping_47_Trt01An_01"
            },
            {
              "groupingId": "AnlsGrouping_48_Param",
              "groupValue": "Albumin (g/L)"
            }
          ],
          "rawValue": "32",
          "formattedValue": "32"
        },
        {
          "operationId": "Mth_06_07_Min",
          "resultGroups": [
            {
              "groupingId": "AnlsGrouping_47_Trt01An",
              "groupId": "AnlsGrouping_47_Trt01An_01"
            },
            {
              "groupingId": "AnlsGrouping_48_Param",
              "groupValue": "Alkaline Phosphatase (U/L)"
            }
          ],
          "rawValue": "31",
          "formattedValue": "31"
        },
        {
          "operationId": "Mth_06_07_Min",
          "resultGroups": [
            {
              "groupingId": "AnlsGrouping_47_Trt01An",
              "groupId": "AnlsGrouping_47_Trt01An_01"
            },
            {
              "groupingId": "AnlsGrouping_48_Param",
              "groupValue": "Aspartate Aminotransferase (U/L)"
            }
          ],
          "rawValue": "13",
          "formattedValue": "13"
        },
        {
          "operationId": "Mth_06_07_Min",
          "resultGroups": [
            {
              "groupingId": "AnlsGrouping_47_Trt01An",
              "groupId": "AnlsGrouping_47_Trt01An_01"
            },
            {
              "groupingId": "AnlsGrouping_48_Param",
              "groupValue": "Bilirubin (umol/L)"
            }
          ],
          "rawValue": "5.13",
          "formattedValue": "5.13"
        },
        {
          "operationId": "Mth_06_07_Min",
          "resultGroups": [
            {
              "groupingId": "AnlsGrouping_47_Trt01An",
              "groupId": "AnlsGrouping_47_Trt01An_01"
            },
            {
              "groupingId": "AnlsGrouping_48_Param",
              "groupValue": "Blood Urea Nitrogen (mmol/L)"
            }
          ],
          "rawValue": "2.499",
          "formattedValue": "2.499"
        },
        {
          "operationId": "Mth_06_07_Min",
          "resultGroups": [
            {
              "groupingId": "AnlsGrouping_47_Trt01An",
              "groupId": "AnlsGrouping_47_Trt01An_01"
            },
            {
              "groupingId": "AnlsGrouping_48_Param",
              "groupValue": "Calcium (mmol/L)"
            }
          ],
          "rawValue": "2.07085",
          "formattedValue": "2.07085"
        },
        {
          "operationId": "Mth_06_07_Min",
          "resultGroups": [
            {
              "groupingId": "AnlsGrouping_47_Trt01An",
              "groupId": "AnlsGrouping_47_Trt01An_01"
            },
            {
              "groupingId": "AnlsGrouping_48_Param",
              "groupValue": "Chloride (mmol/L)"
            }
          ],
          "rawValue": "98",
          "formattedValue": "98"
        },
        {
          "operationId": "Mth_06_07_Min",
          "resultGroups": [
            {
              "groupingId": "AnlsGrouping_47_Trt01An",
              "groupId": "AnlsGrouping_47_Trt01An_01"
            },
            {
              "groupingId": "AnlsGrouping_48_Param",
              "groupValue": "Cholesterol (mmol/L)"
            }
          ],
          "rawValue": "3.72384",
          "formattedValue": "3.72384"
        },
        {
          "operationId": "Mth_06_07_Min",
          "resultGroups": [
            {
              "groupingId": "AnlsGrouping_47_Trt01An",
              "groupId": "AnlsGrouping_47_Trt01An_01"
            },
            {
              "groupingId": "AnlsGrouping_48_Param",
              "groupValue": "Creatine Kinase (U/L)"
            }
          ],
          "rawValue": "31",
          "formattedValue": "31"
        },
        {
          "operationId": "Mth_06_07_Min",
          "resultGroups": [
            {
              "groupingId": "AnlsGrouping_47_Trt01An",
              "groupId": "AnlsGrouping_47_Trt01An_01"
            },
            {
              "groupingId": "AnlsGrouping_48_Param",
              "groupValue": "Creatinine (umol/L)"
            }
          ],
          "rawValue": "70.72",
          "formattedValue": "70.72"
        },
        {
          "operationId": "Mth_06_07_Min",
          "resultGroups": [
            {
              "groupingId": "AnlsGrouping_47_Trt01An",
              "groupId": "AnlsGrouping_47_Trt01An_01"
            },
            {
              "groupingId": "AnlsGrouping_48_Param",
              "groupValue": "Gamma Glutamyl Transferase (U/L)"
            }
          ],
          "rawValue": "6",
          "formattedValue": "6"
        },
        {
          "operationId": "Mth_06_07_Min",
          "resultGroups": [
            {
              "groupingId": "AnlsGrouping_47_Trt01An",
              "groupId": "AnlsGrouping_47_Trt01An_01"
            },
            {
              "groupingId": "AnlsGrouping_48_Param",
              "groupValue": "Glucose (mmol/L)"
            }
          ],
          "rawValue": "3.55264",
          "formattedValue": "3.55264"
        },
        {
          "operationId": "Mth_06_07_Min",
          "resultGroups": [
            {
              "groupingId": "AnlsGrouping_47_Trt01An",
              "groupId": "AnlsGrouping_47_Trt01An_01"
            },
            {
              "groupingId": "AnlsGrouping_48_Param",
              "groupValue": "Phosphate (mmol/L)"
            }
          ],
          "rawValue": "0.93641",
          "formattedValue": "0.93641"
        },
        {
          "operationId": "Mth_06_07_Min",
          "resultGroups": [
            {
              "groupingId": "AnlsGrouping_47_Trt01An",
              "groupId": "AnlsGrouping_47_Trt01An_01"
            },
            {
              "groupingId": "AnlsGrouping_48_Param",
              "groupValue": "Potassium (mmol/L)"
            }
          ],
          "rawValue": "3.4",
          "formattedValue": "3.4"
        },
        {
          "operationId": "Mth_06_07_Min",
          "resultGroups": [
            {
              "groupingId": "AnlsGrouping_47_Trt01An",
              "groupId": "AnlsGrouping_47_Trt01An_01"
            },
            {
              "groupingId": "AnlsGrouping_48_Param",
              "groupValue": "Protein (g/L)"
            }
          ],
          "rawValue": "59",
          "formattedValue": "59"
        },
        {
          "operationId": "Mth_06_07_Min",
          "resultGroups": [
            {
              "groupingId": "AnlsGrouping_47_Trt01An",
              "groupId": "AnlsGrouping_47_Trt01An_01"
            },
            {
              "groupingId": "AnlsGrouping_48_Param",
              "groupValue": "Sodium (mmol/L)"
            }
          ],
          "rawValue": "132",
          "formattedValue": "132"
        },
        {
          "operationId": "Mth_06_07_Min",
          "resultGroups": [
            {
              "groupingId": "AnlsGrouping_47_Trt01An",
              "groupId": "AnlsGrouping_47_Trt01An_01"
            },
            {
              "groupingId": "AnlsGrouping_48_Param",
              "groupValue": "Urate (umol/L)"
            }
          ],
          "rawValue": "136.804",
          "formattedValue": "136.804"
        },
        {
          "operationId": "Mth_06_07_Min",
          "resultGroups": [
            {
              "groupingId": "AnlsGrouping_47_Trt01An",
              "groupId": "AnlsGrouping_47_Trt01An_02"
            },
            {
              "groupingId": "AnlsGrouping_48_Param",
              "groupValue": "Alanine Aminotransferase (U/L)"
            }
          ],
          "rawValue": "6",
          "formattedValue": "6"
        },
        {
          "operationId": "Mth_06_07_Min",
          "resultGroups": [
            {
              "groupingId": "AnlsGrouping_47_Trt01An",
              "groupId": "AnlsGrouping_47_Trt01An_02"
            },
            {
              "groupingId": "AnlsGrouping_48_Param",
              "groupValue": "Albumin (g/L)"
            }
          ],
          "rawValue": "32",
          "formattedValue": "32"
        },
        {
          "operationId": "Mth_06_07_Min",
          "resultGroups": [
            {
              "groupingId": "AnlsGrouping_47_Trt01An",
              "groupId": "AnlsGrouping_47_Trt01An_02"
            },
            {
              "groupingId": "AnlsGrouping_48_Param",
              "groupValue": "Alkaline Phosphatase (U/L)"
            }
          ],
          "rawValue": "33",
          "formattedValue": "33"
        },
        {
          "operationId": "Mth_06_07_Min",
          "resultGroups": [
            {
              "groupingId": "AnlsGrouping_47_Trt01An",
              "groupId": "AnlsGrouping_47_Trt01An_02"
            },
            {
              "groupingId": "AnlsGrouping_48_Param",
              "groupValue": "Aspartate Aminotransferase (U/L)"
            }
          ],
          "rawValue": "13",
          "formattedValue": "13"
        },
        {
          "operationId": "Mth_06_07_Min",
          "resultGroups": [
            {
              "groupingId": "AnlsGrouping_47_Trt01An",
              "groupId": "AnlsGrouping_47_Trt01An_02"
            },
            {
              "groupingId": "AnlsGrouping_48_Param",
              "groupValue": "Bilirubin (umol/L)"
            }
          ],
          "rawValue": "3.42",
          "formattedValue": "3.42"
        },
        {
          "operationId": "Mth_06_07_Min",
          "resultGroups": [
            {
              "groupingId": "AnlsGrouping_47_Trt01An",
              "groupId": "AnlsGrouping_47_Trt01An_02"
            },
            {
              "groupingId": "AnlsGrouping_48_Param",
              "groupValue": "Blood Urea Nitrogen (mmol/L)"
            }
          ],
          "rawValue": "2.499",
          "formattedValue": "2.499"
        },
        {
          "operationId": "Mth_06_07_Min",
          "resultGroups": [
            {
              "groupingId": "AnlsGrouping_47_Trt01An",
              "groupId": "AnlsGrouping_47_Trt01An_02"
            },
            {
              "groupingId": "AnlsGrouping_48_Param",
              "groupValue": "Calcium (mmol/L)"
            }
          ],
          "rawValue": "2.07085",
          "formattedValue": "2.07085"
        },
        {
          "operationId": "Mth_06_07_Min",
          "resultGroups": [
            {
              "groupingId": "AnlsGrouping_47_Trt01An",
              "groupId": "AnlsGrouping_47_Trt01An_02"
            },
            {
              "groupingId": "AnlsGrouping_48_Param",
              "groupValue": "Chloride (mmol/L)"
            }
          ],
          "rawValue": "92",
          "formattedValue": "92"
        },
        {
          "operationId": "Mth_06_07_Min",
          "resultGroups": [
            {
              "groupingId": "AnlsGrouping_47_Trt01An",
              "groupId": "AnlsGrouping_47_Trt01An_02"
            },
            {
              "groupingId": "AnlsGrouping_48_Param",
              "groupValue": "Cholesterol (mmol/L)"
            }
          ],
          "rawValue": "3.51696",
          "formattedValue": "3.51696"
        },
        {
          "operationId": "Mth_06_07_Min",
          "resultGroups": [
            {
              "groupingId": "AnlsGrouping_47_Trt01An",
              "groupId": "AnlsGrouping_47_Trt01An_02"
            },
            {
              "groupingId": "AnlsGrouping_48_Param",
              "groupValue": "Creatine Kinase (U/L)"
            }
          ],
          "rawValue": "28",
          "formattedValue": "28"
        },
        {
          "operationId": "Mth_06_07_Min",
          "resultGroups": [
            {
              "groupingId": "AnlsGrouping_47_Trt01An",
              "groupId": "AnlsGrouping_47_Trt01An_02"
            },
            {
              "groupingId": "AnlsGrouping_48_Param",
              "groupValue": "Creatinine (umol/L)"
            }
          ],
          "rawValue": "61.88",
          "formattedValue": "61.88"
        },
        {
          "operationId": "Mth_06_07_Min",
          "resultGroups": [
            {
              "groupingId": "AnlsGrouping_47_Trt01An",
              "groupId": "AnlsGrouping_47_Trt01An_02"
            },
            {
              "groupingId": "AnlsGrouping_48_Param",
              "groupValue": "Gamma Glutamyl Transferase (U/L)"
            }
          ],
          "rawValue": "7",
          "formattedValue": "7"
        },
        {
          "operationId": "Mth_06_07_Min",
          "resultGroups": [
            {
              "groupingId": "AnlsGrouping_47_Trt01An",
              "groupId": "AnlsGrouping_47_Trt01An_02"
            },
            {
              "groupingId": "AnlsGrouping_48_Param",
              "groupValue": "Glucose (mmol/L)"
            }
          ],
          "rawValue": "2.94203",
          "formattedValue": "2.94203"
        },
        {
          "operationId": "Mth_06_07_Min",
          "resultGroups": [
            {
              "groupingId": "AnlsGrouping_47_Trt01An",
              "groupId": "AnlsGrouping_47_Trt01An_02"
            },
            {
              "groupingId": "AnlsGrouping_48_Param",
              "groupValue": "Phosphate (mmol/L)"
            }
          ],
          "rawValue": "0.83954",
          "formattedValue": "0.83954"
        },
        {
          "operationId": "Mth_06_07_Min",
          "resultGroups": [
            {
              "groupingId": "AnlsGrouping_47_Trt01An",
              "groupId": "AnlsGrouping_47_Trt01An_02"
            },
            {
              "groupingId": "AnlsGrouping_48_Param",
              "groupValue": "Potassium (mmol/L)"
            }
          ],
          "rawValue": "3.3",
          "formattedValue": "3.3"
        },
        {
          "operationId": "Mth_06_07_Min",
          "resultGroups": [
            {
              "groupingId": "AnlsGrouping_47_Trt01An",
              "groupId": "AnlsGrouping_47_Trt01An_02"
            },
            {
              "groupingId": "AnlsGrouping_48_Param",
              "groupValue": "Protein (g/L)"
            }
          ],
          "rawValue": "60",
          "formattedValue": "60"
        },
        {
          "operationId": "Mth_06_07_Min",
          "resultGroups": [
            {
              "groupingId": "AnlsGrouping_47_Trt01An",
              "groupId": "AnlsGrouping_47_Trt01An_02"
            },
            {
              "groupingId": "AnlsGrouping_48_Param",
              "groupValue": "Sodium (mmol/L)"
            }
          ],
          "rawValue": "130",
          "formattedValue": "130"
        },
        {
          "operationId": "Mth_06_07_Min",
          "resultGroups": [
            {
              "groupingId": "AnlsGrouping_47_Trt01An",
              "groupId": "AnlsGrouping_47_Trt01An_02"
            },
            {
              "groupingId": "AnlsGrouping_48_Param",
              "groupValue": "Urate (umol/L)"
            }
          ],
          "rawValue": "148.7",
          "formattedValue": "148.700"
        },
        {
          "operationId": "Mth_06_07_Min",
          "resultGroups": [
            {
              "groupingId": "AnlsGrouping_47_Trt01An",
              "groupId": "AnlsGrouping_47_Trt01An_03"
            },
            {
              "groupingId": "AnlsGrouping_48_Param",
              "groupValue": "Alanine Aminotransferase (U/L)"
            }
          ],
          "rawValue": "7",
          "formattedValue": "7"
        },
        {
          "operationId": "Mth_06_07_Min",
          "resultGroups": [
            {
              "groupingId": "AnlsGrouping_47_Trt01An",
              "groupId": "AnlsGrouping_47_Trt01An_03"
            },
            {
              "groupingId": "AnlsGrouping_48_Param",
              "groupValue": "Albumin (g/L)"
            }
          ],
          "rawValue": "32",
          "formattedValue": "32"
        },
        {
          "operationId": "Mth_06_07_Min",
          "resultGroups": [
            {
              "groupingId": "AnlsGrouping_47_Trt01An",
              "groupId": "AnlsGrouping_47_Trt01An_03"
            },
            {
              "groupingId": "AnlsGrouping_48_Param",
              "groupValue": "Alkaline Phosphatase (U/L)"
            }
          ],
          "rawValue": "28",
          "formattedValue": "28"
        },
        {
          "operationId": "Mth_06_07_Min",
          "resultGroups": [
            {
              "groupingId": "AnlsGrouping_47_Trt01An",
              "groupId": "AnlsGrouping_47_Trt01An_03"
            },
            {
              "groupingId": "AnlsGrouping_48_Param",
              "groupValue": "Aspartate Aminotransferase (U/L)"
            }
          ],
          "rawValue": "12",
          "formattedValue": "12"
        },
        {
          "operationId": "Mth_06_07_Min",
          "resultGroups": [
            {
              "groupingId": "AnlsGrouping_47_Trt01An",
              "groupId": "AnlsGrouping_47_Trt01An_03"
            },
            {
              "groupingId": "AnlsGrouping_48_Param",
              "groupValue": "Bilirubin (umol/L)"
            }
          ],
          "rawValue": "5.13",
          "formattedValue": "5.13"
        },
        {
          "operationId": "Mth_06_07_Min",
          "resultGroups": [
            {
              "groupingId": "AnlsGrouping_47_Trt01An",
              "groupId": "AnlsGrouping_47_Trt01An_03"
            },
            {
              "groupingId": "AnlsGrouping_48_Param",
              "groupValue": "Blood Urea Nitrogen (mmol/L)"
            }
          ],
          "rawValue": "3.213",
          "formattedValue": "3.213"
        },
        {
          "operationId": "Mth_06_07_Min",
          "resultGroups": [
            {
              "groupingId": "AnlsGrouping_47_Trt01An",
              "groupId": "AnlsGrouping_47_Trt01An_03"
            },
            {
              "groupingId": "AnlsGrouping_48_Param",
              "groupValue": "Calcium (mmol/L)"
            }
          ],
          "rawValue": "2.0958",
          "formattedValue": "2.09580"
        },
        {
          "operationId": "Mth_06_07_Min",
          "resultGroups": [
            {
              "groupingId": "AnlsGrouping_47_Trt01An",
              "groupId": "AnlsGrouping_47_Trt01An_03"
            },
            {
              "groupingId": "AnlsGrouping_48_Param",
              "groupValue": "Chloride (mmol/L)"
            }
          ],
          "rawValue": "97",
          "formattedValue": "97"
        },
        {
          "operationId": "Mth_06_07_Min",
          "resultGroups": [
            {
              "groupingId": "AnlsGrouping_47_Trt01An",
              "groupId": "AnlsGrouping_47_Trt01An_03"
            },
            {
              "groupingId": "AnlsGrouping_48_Param",
              "groupValue": "Cholesterol (mmol/L)"
            }
          ],
          "rawValue": "3.7497",
          "formattedValue": "3.74970"
        },
        {
          "operationId": "Mth_06_07_Min",
          "resultGroups": [
            {
              "groupingId": "AnlsGrouping_47_Trt01An",
              "groupId": "AnlsGrouping_47_Trt01An_03"
            },
            {
              "groupingId": "AnlsGrouping_48_Param",
              "groupValue": "Creatine Kinase (U/L)"
            }
          ],
          "rawValue": "27",
          "formattedValue": "27"
        },
        {
          "operationId": "Mth_06_07_Min",
          "resultGroups": [
            {
              "groupingId": "AnlsGrouping_47_Trt01An",
              "groupId": "AnlsGrouping_47_Trt01An_03"
            },
            {
              "groupingId": "AnlsGrouping_48_Param",
              "groupValue": "Creatinine (umol/L)"
            }
          ],
          "rawValue": "61.88",
          "formattedValue": "61.88"
        },
        {
          "operationId": "Mth_06_07_Min",
          "resultGroups": [
            {
              "groupingId": "AnlsGrouping_47_Trt01An",
              "groupId": "AnlsGrouping_47_Trt01An_03"
            },
            {
              "groupingId": "AnlsGrouping_48_Param",
              "groupValue": "Gamma Glutamyl Transferase (U/L)"
            }
          ],
          "rawValue": "5",
          "formattedValue": "5"
        },
        {
          "operationId": "Mth_06_07_Min",
          "resultGroups": [
            {
              "groupingId": "AnlsGrouping_47_Trt01An",
              "groupId": "AnlsGrouping_47_Trt01An_03"
            },
            {
              "groupingId": "AnlsGrouping_48_Param",
              "groupValue": "Glucose (mmol/L)"
            }
          ],
          "rawValue": "3.66366",
          "formattedValue": "3.66366"
        },
        {
          "operationId": "Mth_06_07_Min",
          "resultGroups": [
            {
              "groupingId": "AnlsGrouping_47_Trt01An",
              "groupId": "AnlsGrouping_47_Trt01An_03"
            },
            {
              "groupingId": "AnlsGrouping_48_Param",
              "groupValue": "Phosphate (mmol/L)"
            }
          ],
          "rawValue": "0.80725",
          "formattedValue": "0.80725"
        },
        {
          "operationId": "Mth_06_07_Min",
          "resultGroups": [
            {
              "groupingId": "AnlsGrouping_47_Trt01An",
              "groupId": "AnlsGrouping_47_Trt01An_03"
            },
            {
              "groupingId": "AnlsGrouping_48_Param",
              "groupValue": "Potassium (mmol/L)"
            }
          ],
          "rawValue": "3.5",
          "formattedValue": "3.5"
        },
        {
          "operationId": "Mth_06_07_Min",
          "resultGroups": [
            {
              "groupingId": "AnlsGrouping_47_Trt01An",
              "groupId": "AnlsGrouping_47_Trt01An_03"
            },
            {
              "groupingId": "AnlsGrouping_48_Param",
              "groupValue": "Protein (g/L)"
            }
          ],
          "rawValue": "60",
          "formattedValue": "60"
        },
        {
          "operationId": "Mth_06_07_Min",
          "resultGroups": [
            {
              "groupingId": "AnlsGrouping_47_Trt01An",
              "groupId": "AnlsGrouping_47_Trt01An_03"
            },
            {
              "groupingId": "AnlsGrouping_48_Param",
              "groupValue": "Sodium (mmol/L)"
            }
          ],
          "rawValue": "132",
          "formattedValue": "132"
        },
        {
          "operationId": "Mth_06_07_Min",
          "resultGroups": [
            {
              "groupingId": "AnlsGrouping_47_Trt01An",
              "groupId": "AnlsGrouping_47_Trt01An_03"
            },
            {
              "groupingId": "AnlsGrouping_48_Param",
              "groupValue": "Urate (umol/L)"
            }
          ],
          "rawValue": "136.804",
          "formattedValue": "136.804"
        },
        {
          "operationId": "Mth_06_08_Max",
          "resultGroups": [
            {
              "groupingId": "AnlsGrouping_47_Trt01An",
              "groupId": "AnlsGrouping_47_Trt01An_01"
            },
            {
              "groupingId": "AnlsGrouping_48_Param",
              "groupValue": "Alanine Aminotransferase (U/L)"
            }
          ],
          "rawValue": "70",
          "formattedValue": "70"
        },
        {
          "operationId": "Mth_06_08_Max",
          "resultGroups": [
            {
              "groupingId": "AnlsGrouping_47_Trt01An",
              "groupId": "AnlsGrouping_47_Trt01An_01"
            },
            {
              "groupingId": "AnlsGrouping_48_Param",
              "groupValue": "Albumin (g/L)"
            }
          ],
          "rawValue": "46",
          "formattedValue": "46"
        },
        {
          "operationId": "Mth_06_08_Max",
          "resultGroups": [
            {
              "groupingId": "AnlsGrouping_47_Trt01An",
              "groupId": "AnlsGrouping_47_Trt01An_01"
            },
            {
              "groupingId": "AnlsGrouping_48_Param",
              "groupValue": "Alkaline Phosphatase (U/L)"
            }
          ],
          "rawValue": "155",
          "formattedValue": "155"
        },
        {
          "operationId": "Mth_06_08_Max",
          "resultGroups": [
            {
              "groupingId": "AnlsGrouping_47_Trt01An",
              "groupId": "AnlsGrouping_47_Trt01An_01"
            },
            {
              "groupingId": "AnlsGrouping_48_Param",
              "groupValue": "Aspartate Aminotransferase (U/L)"
            }
          ],
          "rawValue": "60",
          "formattedValue": "60"
        },
        {
          "operationId": "Mth_06_08_Max",
          "resultGroups": [
            {
              "groupingId": "AnlsGrouping_47_Trt01An",
              "groupId": "AnlsGrouping_47_Trt01An_01"
            },
            {
              "groupingId": "AnlsGrouping_48_Param",
              "groupValue": "Bilirubin (umol/L)"
            }
          ],
          "rawValue": "27.36",
          "formattedValue": "27.36"
        },
        {
          "operationId": "Mth_06_08_Max",
          "resultGroups": [
            {
              "groupingId": "AnlsGrouping_47_Trt01An",
              "groupId": "AnlsGrouping_47_Trt01An_01"
            },
            {
              "groupingId": "AnlsGrouping_48_Param",
              "groupValue": "Blood Urea Nitrogen (mmol/L)"
            }
          ],
          "rawValue": "13.923",
          "formattedValue": "13.923"
        },
        {
          "operationId": "Mth_06_08_Max",
          "resultGroups": [
            {
              "groupingId": "AnlsGrouping_47_Trt01An",
              "groupId": "AnlsGrouping_47_Trt01An_01"
            },
            {
              "groupingId": "AnlsGrouping_48_Param",
              "groupValue": "Calcium (mmol/L)"
            }
          ],
          "rawValue": "2.61975",
          "formattedValue": "2.61975"
        },
        {
          "operationId": "Mth_06_08_Max",
          "resultGroups": [
            {
              "groupingId": "AnlsGrouping_47_Trt01An",
              "groupId": "AnlsGrouping_47_Trt01An_01"
            },
            {
              "groupingId": "AnlsGrouping_48_Param",
              "groupValue": "Chloride (mmol/L)"
            }
          ],
          "rawValue": "114",
          "formattedValue": "114"
        },
        {
          "operationId": "Mth_06_08_Max",
          "resultGroups": [
            {
              "groupingId": "AnlsGrouping_47_Trt01An",
              "groupId": "AnlsGrouping_47_Trt01An_01"
            },
            {
              "groupingId": "AnlsGrouping_48_Param",
              "groupValue": "Cholesterol (mmol/L)"
            }
          ],
          "rawValue": "8.89584",
          "formattedValue": "8.89584"
        },
        {
          "operationId": "Mth_06_08_Max",
          "resultGroups": [
            {
              "groupingId": "AnlsGrouping_47_Trt01An",
              "groupId": "AnlsGrouping_47_Trt01An_01"
            },
            {
              "groupingId": "AnlsGrouping_48_Param",
              "groupValue": "Creatine Kinase (U/L)"
            }
          ],
          "rawValue": "550",
          "formattedValue": "550"
        },
        {
          "operationId": "Mth_06_08_Max",
          "resultGroups": [
            {
              "groupingId": "AnlsGrouping_47_Trt01An",
              "groupId": "AnlsGrouping_47_Trt01An_01"
            },
            {
              "groupingId": "AnlsGrouping_48_Param",
              "groupValue": "Creatinine (umol/L)"
            }
          ],
          "rawValue": "167.96",
          "formattedValue": "167.96"
        },
        {
          "operationId": "Mth_06_08_Max",
          "resultGroups": [
            {
              "groupingId": "AnlsGrouping_47_Trt01An",
              "groupId": "AnlsGrouping_47_Trt01An_01"
            },
            {
              "groupingId": "AnlsGrouping_48_Param",
              "groupValue": "Gamma Glutamyl Transferase (U/L)"
            }
          ],
          "rawValue": "94",
          "formattedValue": "94"
        },
        {
          "operationId": "Mth_06_08_Max",
          "resultGroups": [
            {
              "groupingId": "AnlsGrouping_47_Trt01An",
              "groupId": "AnlsGrouping_47_Trt01An_01"
            },
            {
              "groupingId": "AnlsGrouping_48_Param",
              "groupValue": "Glucose (mmol/L)"
            }
          ],
          "rawValue": "8.99262",
          "formattedValue": "8.99262"
        },
        {
          "operationId": "Mth_06_08_Max",
          "resultGroups": [
            {
              "groupingId": "AnlsGrouping_47_Trt01An",
              "groupId": "AnlsGrouping_47_Trt01An_01"
            },
            {
              "groupingId": "AnlsGrouping_48_Param",
              "groupValue": "Phosphate (mmol/L)"
            }
          ],
          "rawValue": "1.38847",
          "formattedValue": "1.38847"
        },
        {
          "operationId": "Mth_06_08_Max",
          "resultGroups": [
            {
              "groupingId": "AnlsGrouping_47_Trt01An",
              "groupId": "AnlsGrouping_47_Trt01An_01"
            },
            {
              "groupingId": "AnlsGrouping_48_Param",
              "groupValue": "Potassium (mmol/L)"
            }
          ],
          "rawValue": "5.2",
          "formattedValue": "5.2"
        },
        {
          "operationId": "Mth_06_08_Max",
          "resultGroups": [
            {
              "groupingId": "AnlsGrouping_47_Trt01An",
              "groupId": "AnlsGrouping_47_Trt01An_01"
            },
            {
              "groupingId": "AnlsGrouping_48_Param",
              "groupValue": "Protein (g/L)"
            }
          ],
          "rawValue": "84",
          "formattedValue": "84"
        },
        {
          "operationId": "Mth_06_08_Max",
          "resultGroups": [
            {
              "groupingId": "AnlsGrouping_47_Trt01An",
              "groupId": "AnlsGrouping_47_Trt01An_01"
            },
            {
              "groupingId": "AnlsGrouping_48_Param",
              "groupValue": "Sodium (mmol/L)"
            }
          ],
          "rawValue": "145",
          "formattedValue": "145"
        },
        {
          "operationId": "Mth_06_08_Max",
          "resultGroups": [
            {
              "groupingId": "AnlsGrouping_47_Trt01An",
              "groupId": "AnlsGrouping_47_Trt01An_01"
            },
            {
              "groupingId": "AnlsGrouping_48_Param",
              "groupValue": "Urate (umol/L)"
            }
          ],
          "rawValue": "618.592",
          "formattedValue": "618.592"
        },
        {
          "operationId": "Mth_06_08_Max",
          "resultGroups": [
            {
              "groupingId": "AnlsGrouping_47_Trt01An",
              "groupId": "AnlsGrouping_47_Trt01An_02"
            },
            {
              "groupingId": "AnlsGrouping_48_Param",
              "groupValue": "Alanine Aminotransferase (U/L)"
            }
          ],
          "rawValue": "64",
          "formattedValue": "64"
        },
        {
          "operationId": "Mth_06_08_Max",
          "resultGroups": [
            {
              "groupingId": "AnlsGrouping_47_Trt01An",
              "groupId": "AnlsGrouping_47_Trt01An_02"
            },
            {
              "groupingId": "AnlsGrouping_48_Param",
              "groupValue": "Albumin (g/L)"
            }
          ],
          "rawValue": "49",
          "formattedValue": "49"
        },
        {
          "operationId": "Mth_06_08_Max",
          "resultGroups": [
            {
              "groupingId": "AnlsGrouping_47_Trt01An",
              "groupId": "AnlsGrouping_47_Trt01An_02"
            },
            {
              "groupingId": "AnlsGrouping_48_Param",
              "groupValue": "Alkaline Phosphatase (U/L)"
            }
          ],
          "rawValue": "386",
          "formattedValue": "386"
        },
        {
          "operationId": "Mth_06_08_Max",
          "resultGroups": [
            {
              "groupingId": "AnlsGrouping_47_Trt01An",
              "groupId": "AnlsGrouping_47_Trt01An_02"
            },
            {
              "groupingId": "AnlsGrouping_48_Param",
              "groupValue": "Aspartate Aminotransferase (U/L)"
            }
          ],
          "rawValue": "52",
          "formattedValue": "52"
        },
        {
          "operationId": "Mth_06_08_Max",
          "resultGroups": [
            {
              "groupingId": "AnlsGrouping_47_Trt01An",
              "groupId": "AnlsGrouping_47_Trt01An_02"
            },
            {
              "groupingId": "AnlsGrouping_48_Param",
              "groupValue": "Bilirubin (umol/L)"
            }
          ],
          "rawValue": "39.33",
          "formattedValue": "39.33"
        },
        {
          "operationId": "Mth_06_08_Max",
          "resultGroups": [
            {
              "groupingId": "AnlsGrouping_47_Trt01An",
              "groupId": "AnlsGrouping_47_Trt01An_02"
            },
            {
              "groupingId": "AnlsGrouping_48_Param",
              "groupValue": "Blood Urea Nitrogen (mmol/L)"
            }
          ],
          "rawValue": "12.138",
          "formattedValue": "12.138"
        },
        {
          "operationId": "Mth_06_08_Max",
          "resultGroups": [
            {
              "groupingId": "AnlsGrouping_47_Trt01An",
              "groupId": "AnlsGrouping_47_Trt01An_02"
            },
            {
              "groupingId": "AnlsGrouping_48_Param",
              "groupValue": "Calcium (mmol/L)"
            }
          ],
          "rawValue": "2.56985",
          "formattedValue": "2.56985"
        },
        {
          "operationId": "Mth_06_08_Max",
          "resultGroups": [
            {
              "groupingId": "AnlsGrouping_47_Trt01An",
              "groupId": "AnlsGrouping_47_Trt01An_02"
            },
            {
              "groupingId": "AnlsGrouping_48_Param",
              "groupValue": "Chloride (mmol/L)"
            }
          ],
          "rawValue": "112",
          "formattedValue": "112"
        },
        {
          "operationId": "Mth_06_08_Max",
          "resultGroups": [
            {
              "groupingId": "AnlsGrouping_47_Trt01An",
              "groupId": "AnlsGrouping_47_Trt01An_02"
            },
            {
              "groupingId": "AnlsGrouping_48_Param",
              "groupValue": "Cholesterol (mmol/L)"
            }
          ],
          "rawValue": "7.99074",
          "formattedValue": "7.99074"
        },
        {
          "operationId": "Mth_06_08_Max",
          "resultGroups": [
            {
              "groupingId": "AnlsGrouping_47_Trt01An",
              "groupId": "AnlsGrouping_47_Trt01An_02"
            },
            {
              "groupingId": "AnlsGrouping_48_Param",
              "groupValue": "Creatine Kinase (U/L)"
            }
          ],
          "rawValue": "444",
          "formattedValue": "444"
        },
        {
          "operationId": "Mth_06_08_Max",
          "resultGroups": [
            {
              "groupingId": "AnlsGrouping_47_Trt01An",
              "groupId": "AnlsGrouping_47_Trt01An_02"
            },
            {
              "groupingId": "AnlsGrouping_48_Param",
              "groupValue": "Creatinine (umol/L)"
            }
          ],
          "rawValue": "159.12",
          "formattedValue": "159.12"
        },
        {
          "operationId": "Mth_06_08_Max",
          "resultGroups": [
            {
              "groupingId": "AnlsGrouping_47_Trt01An",
              "groupId": "AnlsGrouping_47_Trt01An_02"
            },
            {
              "groupingId": "AnlsGrouping_48_Param",
              "groupValue": "Gamma Glutamyl Transferase (U/L)"
            }
          ],
          "rawValue": "120",
          "formattedValue": "120"
        },
        {
          "operationId": "Mth_06_08_Max",
          "resultGroups": [
            {
              "groupingId": "AnlsGrouping_47_Trt01An",
              "groupId": "AnlsGrouping_47_Trt01An_02"
            },
            {
              "groupingId": "AnlsGrouping_48_Param",
              "groupValue": "Glucose (mmol/L)"
            }
          ],
          "rawValue": "10.87996",
          "formattedValue": "10.87996"
        },
        {
          "operationId": "Mth_06_08_Max",
          "resultGroups": [
            {
              "groupingId": "AnlsGrouping_47_Trt01An",
              "groupId": "AnlsGrouping_47_Trt01An_02"
            },
            {
              "groupingId": "AnlsGrouping_48_Param",
              "groupValue": "Phosphate (mmol/L)"
            }
          ],
          "rawValue": "1.48534",
          "formattedValue": "1.48534"
        },
        {
          "operationId": "Mth_06_08_Max",
          "resultGroups": [
            {
              "groupingId": "AnlsGrouping_47_Trt01An",
              "groupId": "AnlsGrouping_47_Trt01An_02"
            },
            {
              "groupingId": "AnlsGrouping_48_Param",
              "groupValue": "Potassium (mmol/L)"
            }
          ],
          "rawValue": "5.1",
          "formattedValue": "5.1"
        },
        {
          "operationId": "Mth_06_08_Max",
          "resultGroups": [
            {
              "groupingId": "AnlsGrouping_47_Trt01An",
              "groupId": "AnlsGrouping_47_Trt01An_02"
            },
            {
              "groupingId": "AnlsGrouping_48_Param",
              "groupValue": "Protein (g/L)"
            }
          ],
          "rawValue": "82",
          "formattedValue": "82"
        },
        {
          "operationId": "Mth_06_08_Max",
          "resultGroups": [
            {
              "groupingId": "AnlsGrouping_47_Trt01An",
              "groupId": "AnlsGrouping_47_Trt01An_02"
            },
            {
              "groupingId": "AnlsGrouping_48_Param",
              "groupValue": "Sodium (mmol/L)"
            }
          ],
          "rawValue": "148",
          "formattedValue": "148"
        },
        {
          "operationId": "Mth_06_08_Max",
          "resultGroups": [
            {
              "groupingId": "AnlsGrouping_47_Trt01An",
              "groupId": "AnlsGrouping_47_Trt01An_02"
            },
            {
              "groupingId": "AnlsGrouping_48_Param",
              "groupValue": "Urate (umol/L)"
            }
          ],
          "rawValue": "493.684",
          "formattedValue": "493.684"
        },
        {
          "operationId": "Mth_06_08_Max",
          "resultGroups": [
            {
              "groupingId": "AnlsGrouping_47_Trt01An",
              "groupId": "AnlsGrouping_47_Trt01An_03"
            },
            {
              "groupingId": "AnlsGrouping_48_Param",
              "groupValue": "Alanine Aminotransferase (U/L)"
            }
          ],
          "rawValue": "69",
          "formattedValue": "69"
        },
        {
          "operationId": "Mth_06_08_Max",
          "resultGroups": [
            {
              "groupingId": "AnlsGrouping_47_Trt01An",
              "groupId": "AnlsGrouping_47_Trt01An_03"
            },
            {
              "groupingId": "AnlsGrouping_48_Param",
              "groupValue": "Albumin (g/L)"
            }
          ],
          "rawValue": "46",
          "formattedValue": "46"
        },
        {
          "operationId": "Mth_06_08_Max",
          "resultGroups": [
            {
              "groupingId": "AnlsGrouping_47_Trt01An",
              "groupId": "AnlsGrouping_47_Trt01An_03"
            },
            {
              "groupingId": "AnlsGrouping_48_Param",
              "groupValue": "Alkaline Phosphatase (U/L)"
            }
          ],
          "rawValue": "565",
          "formattedValue": "565"
        },
        {
          "operationId": "Mth_06_08_Max",
          "resultGroups": [
            {
              "groupingId": "AnlsGrouping_47_Trt01An",
              "groupId": "AnlsGrouping_47_Trt01An_03"
            },
            {
              "groupingId": "AnlsGrouping_48_Param",
              "groupValue": "Aspartate Aminotransferase (U/L)"
            }
          ],
          "rawValue": "54",
          "formattedValue": "54"
        },
        {
          "operationId": "Mth_06_08_Max",
          "resultGroups": [
            {
              "groupingId": "AnlsGrouping_47_Trt01An",
              "groupId": "AnlsGrouping_47_Trt01An_03"
            },
            {
              "groupingId": "AnlsGrouping_48_Param",
              "groupValue": "Bilirubin (umol/L)"
            }
          ],
          "rawValue": "25.65",
          "formattedValue": "25.65"
        },
        {
          "operationId": "Mth_06_08_Max",
          "resultGroups": [
            {
              "groupingId": "AnlsGrouping_47_Trt01An",
              "groupId": "AnlsGrouping_47_Trt01An_03"
            },
            {
              "groupingId": "AnlsGrouping_48_Param",
              "groupValue": "Blood Urea Nitrogen (mmol/L)"
            }
          ],
          "rawValue": "9.282",
          "formattedValue": "9.282"
        },
        {
          "operationId": "Mth_06_08_Max",
          "resultGroups": [
            {
              "groupingId": "AnlsGrouping_47_Trt01An",
              "groupId": "AnlsGrouping_47_Trt01An_03"
            },
            {
              "groupingId": "AnlsGrouping_48_Param",
              "groupValue": "Calcium (mmol/L)"
            }
          ],
          "rawValue": "2.61975",
          "formattedValue": "2.61975"
        },
        {
          "operationId": "Mth_06_08_Max",
          "resultGroups": [
            {
              "groupingId": "AnlsGrouping_47_Trt01An",
              "groupId": "AnlsGrouping_47_Trt01An_03"
            },
            {
              "groupingId": "AnlsGrouping_48_Param",
              "groupValue": "Chloride (mmol/L)"
            }
          ],
          "rawValue": "113",
          "formattedValue": "113"
        },
        {
          "operationId": "Mth_06_08_Max",
          "resultGroups": [
            {
              "groupingId": "AnlsGrouping_47_Trt01An",
              "groupId": "AnlsGrouping_47_Trt01An_03"
            },
            {
              "groupingId": "AnlsGrouping_48_Param",
              "groupValue": "Cholesterol (mmol/L)"
            }
          ],
          "rawValue": "10.26642",
          "formattedValue": "10.26642"
        },
        {
          "operationId": "Mth_06_08_Max",
          "resultGroups": [
            {
              "groupingId": "AnlsGrouping_47_Trt01An",
              "groupId": "AnlsGrouping_47_Trt01An_03"
            },
            {
              "groupingId": "AnlsGrouping_48_Param",
              "groupValue": "Creatine Kinase (U/L)"
            }
          ],
          "rawValue": "239",
          "formattedValue": "239"
        },
        {
          "operationId": "Mth_06_08_Max",
          "resultGroups": [
            {
              "groupingId": "AnlsGrouping_47_Trt01An",
              "groupId": "AnlsGrouping_47_Trt01An_03"
            },
            {
              "groupingId": "AnlsGrouping_48_Param",
              "groupValue": "Creatinine (umol/L)"
            }
          ],
          "rawValue": "159.12",
          "formattedValue": "159.12"
        },
        {
          "operationId": "Mth_06_08_Max",
          "resultGroups": [
            {
              "groupingId": "AnlsGrouping_47_Trt01An",
              "groupId": "AnlsGrouping_47_Trt01An_03"
            },
            {
              "groupingId": "AnlsGrouping_48_Param",
              "groupValue": "Gamma Glutamyl Transferase (U/L)"
            }
          ],
          "rawValue": "466",
          "formattedValue": "466"
        },
        {
          "operationId": "Mth_06_08_Max",
          "resultGroups": [
            {
              "groupingId": "AnlsGrouping_47_Trt01An",
              "groupId": "AnlsGrouping_47_Trt01An_03"
            },
            {
              "groupingId": "AnlsGrouping_48_Param",
              "groupValue": "Glucose (mmol/L)"
            }
          ],
          "rawValue": "21.92645",
          "formattedValue": "21.92645"
        },
        {
          "operationId": "Mth_06_08_Max",
          "resultGroups": [
            {
              "groupingId": "AnlsGrouping_47_Trt01An",
              "groupId": "AnlsGrouping_47_Trt01An_03"
            },
            {
              "groupingId": "AnlsGrouping_48_Param",
              "groupValue": "Phosphate (mmol/L)"
            }
          ],
          "rawValue": "1.45305",
          "formattedValue": "1.45305"
        },
        {
          "operationId": "Mth_06_08_Max",
          "resultGroups": [
            {
              "groupingId": "AnlsGrouping_47_Trt01An",
              "groupId": "AnlsGrouping_47_Trt01An_03"
            },
            {
              "groupingId": "AnlsGrouping_48_Param",
              "groupValue": "Potassium (mmol/L)"
            }
          ],
          "rawValue": "5.7",
          "formattedValue": "5.7"
        },
        {
          "operationId": "Mth_06_08_Max",
          "resultGroups": [
            {
              "groupingId": "AnlsGrouping_47_Trt01An",
              "groupId": "AnlsGrouping_47_Trt01An_03"
            },
            {
              "groupingId": "AnlsGrouping_48_Param",
              "groupValue": "Protein (g/L)"
            }
          ],
          "rawValue": "82",
          "formattedValue": "82"
        },
        {
          "operationId": "Mth_06_08_Max",
          "resultGroups": [
            {
              "groupingId": "AnlsGrouping_47_Trt01An",
              "groupId": "AnlsGrouping_47_Trt01An_03"
            },
            {
              "groupingId": "AnlsGrouping_48_Param",
              "groupValue": "Sodium (mmol/L)"
            }
          ],
          "rawValue": "147",
          "formattedValue": "147"
        },
        {
          "operationId": "Mth_06_08_Max",
          "resultGroups": [
            {
              "groupingId": "AnlsGrouping_47_Trt01An",
              "groupId": "AnlsGrouping_47_Trt01An_03"
            },
            {
              "groupingId": "AnlsGrouping_48_Param",
              "groupValue": "Urate (umol/L)"
            }
          ],
          "rawValue": "469.892",
          "formattedValue": "469.892"
        }
      ]
    },
    {
      "name": "Summary of Analysis Value by Treatment, Parameter (Unit) and Visit",
      "id": "An_87",
      "reason": {
        "controlledTerm": "SPECIFIED IN SAP"
      },
      "purpose": {
        "controlledTerm": "PRIMARY OUTCOME MEASURE"
      },
      "methodId": "Mth_06",
      "version": 1,
      "categoryIds": [
        "ANSET_01",
        "ANSET_01_ANINT_01"
      ],
      "dataset": "ADLB",
      "variable": "AVAL",
      "analysisSetId": "AnalysisSet_01",
      "dataSubsetId": "Dss_30",
      "orderedGroupings": [
        {
          "order": 1,
          "groupingId": "AnlsGrouping_47_Trt01An",
          "resultsByGroup": true
        },
        {
          "order": 2,
          "groupingId": "AnlsGrouping_48_Param",
          "resultsByGroup": true
        },
        {
          "order": 3,
          "groupingId": "AnlsGrouping_50_Aval",
          "resultsByGroup": true
        }
      ],
      "results": [
        {
          "operationId": "Mth_06_01_n",
          "resultGroups": [
            {
              "groupingId": "AnlsGrouping_47_Trt01An",
              "groupId": "AnlsGrouping_47_Trt01An_01"
            },
            {
              "groupingId": "AnlsGrouping_48_Param",
              "groupValue": "Alanine Aminotransferase (U/L)"
            },
            {
              "groupingId": "AnlsGrouping_50_Aval",
              "groupValue": "End of Treatment"
            }
          ],
          "rawValue": "82",
          "formattedValue": "82"
        },
        {
          "operationId": "Mth_06_01_n",
          "resultGroups": [
            {
              "groupingId": "AnlsGrouping_47_Trt01An",
              "groupId": "AnlsGrouping_47_Trt01An_01"
            },
            {
              "groupingId": "AnlsGrouping_48_Param",
              "groupValue": "Alanine Aminotransferase (U/L)"
            },
            {
              "groupingId": "AnlsGrouping_50_Aval",
              "groupValue": "Week 12"
            }
          ],
          "rawValue": "51",
          "formattedValue": "51"
        },
        {
          "operationId": "Mth_06_01_n",
          "resultGroups": [
            {
              "groupingId": "AnlsGrouping_47_Trt01An",
              "groupId": "AnlsGrouping_47_Trt01An_01"
            },
            {
              "groupingId": "AnlsGrouping_48_Param",
              "groupValue": "Alanine Aminotransferase (U/L)"
            },
            {
              "groupingId": "AnlsGrouping_50_Aval",
              "groupValue": "Week 16"
            }
          ],
          "rawValue": "42",
          "formattedValue": "42"
        },
        {
          "operationId": "Mth_06_01_n",
          "resultGroups": [
            {
              "groupingId": "AnlsGrouping_47_Trt01An",
              "groupId": "AnlsGrouping_47_Trt01An_01"
            },
            {
              "groupingId": "AnlsGrouping_48_Param",
              "groupValue": "Alanine Aminotransferase (U/L)"
            },
            {
              "groupingId": "AnlsGrouping_50_Aval",
              "groupValue": "Week 2"
            }
          ],
          "rawValue": "80",
          "formattedValue": "80"
        },
        {
          "operationId": "Mth_06_01_n",
          "resultGroups": [
            {
              "groupingId": "AnlsGrouping_47_Trt01An",
              "groupId": "AnlsGrouping_47_Trt01An_01"
            },
            {
              "groupingId": "AnlsGrouping_48_Param",
              "groupValue": "Alanine Aminotransferase (U/L)"
            },
            {
              "groupingId": "AnlsGrouping_50_Aval",
              "groupValue": "Week 20"
            }
          ],
          "rawValue": "30",
          "formattedValue": "30"
        },
        {
          "operationId": "Mth_06_01_n",
          "resultGroups": [
            {
              "groupingId": "AnlsGrouping_47_Trt01An",
              "groupId": "AnlsGrouping_47_Trt01An_01"
            },
            {
              "groupingId": "AnlsGrouping_48_Param",
              "groupValue": "Alanine Aminotransferase (U/L)"
            },
            {
              "groupingId": "AnlsGrouping_50_Aval",
              "groupValue": "Week 24"
            }
          ],
          "rawValue": "26",
          "formattedValue": "26"
        },
        {
          "operationId": "Mth_06_01_n",
          "resultGroups": [
            {
              "groupingId": "AnlsGrouping_47_Trt01An",
              "groupId": "AnlsGrouping_47_Trt01An_01"
            },
            {
              "groupingId": "AnlsGrouping_48_Param",
              "groupValue": "Alanine Aminotransferase (U/L)"
            },
            {
              "groupingId": "AnlsGrouping_50_Aval",
              "groupValue": "Week 26"
            }
          ],
          "rawValue": "25",
          "formattedValue": "25"
        },
        {
          "operationId": "Mth_06_01_n",
          "resultGroups": [
            {
              "groupingId": "AnlsGrouping_47_Trt01An",
              "groupId": "AnlsGrouping_47_Trt01An_01"
            },
            {
              "groupingId": "AnlsGrouping_48_Param",
              "groupValue": "Alanine Aminotransferase (U/L)"
            },
            {
              "groupingId": "AnlsGrouping_50_Aval",
              "groupValue": "Week 4"
            }
          ],
          "rawValue": "72",
          "formattedValue": "72"
        },
        {
          "operationId": "Mth_06_01_n",
          "resultGroups": [
            {
              "groupingId": "AnlsGrouping_47_Trt01An",
              "groupId": "AnlsGrouping_47_Trt01An_01"
            },
            {
              "groupingId": "AnlsGrouping_48_Param",
              "groupValue": "Alanine Aminotransferase (U/L)"
            },
            {
              "groupingId": "AnlsGrouping_50_Aval",
              "groupValue": "Week 6"
            }
          ],
          "rawValue": "62",
          "formattedValue": "62"
        },
        {
          "operationId": "Mth_06_01_n",
          "resultGroups": [
            {
              "groupingId": "AnlsGrouping_47_Trt01An",
              "groupId": "AnlsGrouping_47_Trt01An_01"
            },
            {
              "groupingId": "AnlsGrouping_48_Param",
              "groupValue": "Alanine Aminotransferase (U/L)"
            },
            {
              "groupingId": "AnlsGrouping_50_Aval",
              "groupValue": "Week 8"
            }
          ],
          "rawValue": "60",
          "formattedValue": "60"
        },
        {
          "operationId": "Mth_06_01_n",
          "resultGroups": [
            {
              "groupingId": "AnlsGrouping_47_Trt01An",
              "groupId": "AnlsGrouping_47_Trt01An_01"
            },
            {
              "groupingId": "AnlsGrouping_48_Param",
              "groupValue": "Albumin (g/L)"
            },
            {
              "groupingId": "AnlsGrouping_50_Aval",
              "groupValue": "End of Treatment"
            }
          ],
          "rawValue": "82",
          "formattedValue": "82"
        },
        {
          "operationId": "Mth_06_01_n",
          "resultGroups": [
            {
              "groupingId": "AnlsGrouping_47_Trt01An",
              "groupId": "AnlsGrouping_47_Trt01An_01"
            },
            {
              "groupingId": "AnlsGrouping_48_Param",
              "groupValue": "Albumin (g/L)"
            },
            {
              "groupingId": "AnlsGrouping_50_Aval",
              "groupValue": "Week 12"
            }
          ],
          "rawValue": "51",
          "formattedValue": "51"
        },
        {
          "operationId": "Mth_06_01_n",
          "resultGroups": [
            {
              "groupingId": "AnlsGrouping_47_Trt01An",
              "groupId": "AnlsGrouping_47_Trt01An_01"
            },
            {
              "groupingId": "AnlsGrouping_48_Param",
              "groupValue": "Albumin (g/L)"
            },
            {
              "groupingId": "AnlsGrouping_50_Aval",
              "groupValue": "Week 16"
            }
          ],
          "rawValue": "42",
          "formattedValue": "42"
        },
        {
          "operationId": "Mth_06_01_n",
          "resultGroups": [
            {
              "groupingId": "AnlsGrouping_47_Trt01An",
              "groupId": "AnlsGrouping_47_Trt01An_01"
            },
            {
              "groupingId": "AnlsGrouping_48_Param",
              "groupValue": "Albumin (g/L)"
            },
            {
              "groupingId": "AnlsGrouping_50_Aval",
              "groupValue": "Week 2"
            }
          ],
          "rawValue": "80",
          "formattedValue": "80"
        },
        {
          "operationId": "Mth_06_01_n",
          "resultGroups": [
            {
              "groupingId": "AnlsGrouping_47_Trt01An",
              "groupId": "AnlsGrouping_47_Trt01An_01"
            },
            {
              "groupingId": "AnlsGrouping_48_Param",
              "groupValue": "Albumin (g/L)"
            },
            {
              "groupingId": "AnlsGrouping_50_Aval",
              "groupValue": "Week 20"
            }
          ],
          "rawValue": "30",
          "formattedValue": "30"
        },
        {
          "operationId": "Mth_06_01_n",
          "resultGroups": [
            {
              "groupingId": "AnlsGrouping_47_Trt01An",
              "groupId": "AnlsGrouping_47_Trt01An_01"
            },
            {
              "groupingId": "AnlsGrouping_48_Param",
              "groupValue": "Albumin (g/L)"
            },
            {
              "groupingId": "AnlsGrouping_50_Aval",
              "groupValue": "Week 24"
            }
          ],
          "rawValue": "26",
          "formattedValue": "26"
        },
        {
          "operationId": "Mth_06_01_n",
          "resultGroups": [
            {
              "groupingId": "AnlsGrouping_47_Trt01An",
              "groupId": "AnlsGrouping_47_Trt01An_01"
            },
            {
              "groupingId": "AnlsGrouping_48_Param",
              "groupValue": "Albumin (g/L)"
            },
            {
              "groupingId": "AnlsGrouping_50_Aval",
              "groupValue": "Week 26"
            }
          ],
          "rawValue": "25",
          "formattedValue": "25"
        },
        {
          "operationId": "Mth_06_01_n",
          "resultGroups": [
            {
              "groupingId": "AnlsGrouping_47_Trt01An",
              "groupId": "AnlsGrouping_47_Trt01An_01"
            },
            {
              "groupingId": "AnlsGrouping_48_Param",
              "groupValue": "Albumin (g/L)"
            },
            {
              "groupingId": "AnlsGrouping_50_Aval",
              "groupValue": "Week 4"
            }
          ],
          "rawValue": "72",
          "formattedValue": "72"
        },
        {
          "operationId": "Mth_06_01_n",
          "resultGroups": [
            {
              "groupingId": "AnlsGrouping_47_Trt01An",
              "groupId": "AnlsGrouping_47_Trt01An_01"
            },
            {
              "groupingId": "AnlsGrouping_48_Param",
              "groupValue": "Albumin (g/L)"
            },
            {
              "groupingId": "AnlsGrouping_50_Aval",
              "groupValue": "Week 6"
            }
          ],
          "rawValue": "62",
          "formattedValue": "62"
        },
        {
          "operationId": "Mth_06_01_n",
          "resultGroups": [
            {
              "groupingId": "AnlsGrouping_47_Trt01An",
              "groupId": "AnlsGrouping_47_Trt01An_01"
            },
            {
              "groupingId": "AnlsGrouping_48_Param",
              "groupValue": "Albumin (g/L)"
            },
            {
              "groupingId": "AnlsGrouping_50_Aval",
              "groupValue": "Week 8"
            }
          ],
          "rawValue": "60",
          "formattedValue": "60"
        },
        {
          "operationId": "Mth_06_01_n",
          "resultGroups": [
            {
              "groupingId": "AnlsGrouping_47_Trt01An",
              "groupId": "AnlsGrouping_47_Trt01An_01"
            },
            {
              "groupingId": "AnlsGrouping_48_Param",
              "groupValue": "Alkaline Phosphatase (U/L)"
            },
            {
              "groupingId": "AnlsGrouping_50_Aval",
              "groupValue": "End of Treatment"
            }
          ],
          "rawValue": "82",
          "formattedValue": "82"
        },
        {
          "operationId": "Mth_06_01_n",
          "resultGroups": [
            {
              "groupingId": "AnlsGrouping_47_Trt01An",
              "groupId": "AnlsGrouping_47_Trt01An_01"
            },
            {
              "groupingId": "AnlsGrouping_48_Param",
              "groupValue": "Alkaline Phosphatase (U/L)"
            },
            {
              "groupingId": "AnlsGrouping_50_Aval",
              "groupValue": "Week 12"
            }
          ],
          "rawValue": "52",
          "formattedValue": "52"
        },
        {
          "operationId": "Mth_06_01_n",
          "resultGroups": [
            {
              "groupingId": "AnlsGrouping_47_Trt01An",
              "groupId": "AnlsGrouping_47_Trt01An_01"
            },
            {
              "groupingId": "AnlsGrouping_48_Param",
              "groupValue": "Alkaline Phosphatase (U/L)"
            },
            {
              "groupingId": "AnlsGrouping_50_Aval",
              "groupValue": "Week 16"
            }
          ],
          "rawValue": "42",
          "formattedValue": "42"
        },
        {
          "operationId": "Mth_06_01_n",
          "resultGroups": [
            {
              "groupingId": "AnlsGrouping_47_Trt01An",
              "groupId": "AnlsGrouping_47_Trt01An_01"
            },
            {
              "groupingId": "AnlsGrouping_48_Param",
              "groupValue": "Alkaline Phosphatase (U/L)"
            },
            {
              "groupingId": "AnlsGrouping_50_Aval",
              "groupValue": "Week 2"
            }
          ],
          "rawValue": "80",
          "formattedValue": "80"
        },
        {
          "operationId": "Mth_06_01_n",
          "resultGroups": [
            {
              "groupingId": "AnlsGrouping_47_Trt01An",
              "groupId": "AnlsGrouping_47_Trt01An_01"
            },
            {
              "groupingId": "AnlsGrouping_48_Param",
              "groupValue": "Alkaline Phosphatase (U/L)"
            },
            {
              "groupingId": "AnlsGrouping_50_Aval",
              "groupValue": "Week 20"
            }
          ],
          "rawValue": "31",
          "formattedValue": "31"
        },
        {
          "operationId": "Mth_06_01_n",
          "resultGroups": [
            {
              "groupingId": "AnlsGrouping_47_Trt01An",
              "groupId": "AnlsGrouping_47_Trt01An_01"
            },
            {
              "groupingId": "AnlsGrouping_48_Param",
              "groupValue": "Alkaline Phosphatase (U/L)"
            },
            {
              "groupingId": "AnlsGrouping_50_Aval",
              "groupValue": "Week 24"
            }
          ],
          "rawValue": "27",
          "formattedValue": "27"
        },
        {
          "operationId": "Mth_06_01_n",
          "resultGroups": [
            {
              "groupingId": "AnlsGrouping_47_Trt01An",
              "groupId": "AnlsGrouping_47_Trt01An_01"
            },
            {
              "groupingId": "AnlsGrouping_48_Param",
              "groupValue": "Alkaline Phosphatase (U/L)"
            },
            {
              "groupingId": "AnlsGrouping_50_Aval",
              "groupValue": "Week 26"
            }
          ],
          "rawValue": "25",
          "formattedValue": "25"
        },
        {
          "operationId": "Mth_06_01_n",
          "resultGroups": [
            {
              "groupingId": "AnlsGrouping_47_Trt01An",
              "groupId": "AnlsGrouping_47_Trt01An_01"
            },
            {
              "groupingId": "AnlsGrouping_48_Param",
              "groupValue": "Alkaline Phosphatase (U/L)"
            },
            {
              "groupingId": "AnlsGrouping_50_Aval",
              "groupValue": "Week 4"
            }
          ],
          "rawValue": "72",
          "formattedValue": "72"
        },
        {
          "operationId": "Mth_06_01_n",
          "resultGroups": [
            {
              "groupingId": "AnlsGrouping_47_Trt01An",
              "groupId": "AnlsGrouping_47_Trt01An_01"
            },
            {
              "groupingId": "AnlsGrouping_48_Param",
              "groupValue": "Alkaline Phosphatase (U/L)"
            },
            {
              "groupingId": "AnlsGrouping_50_Aval",
              "groupValue": "Week 6"
            }
          ],
          "rawValue": "64",
          "formattedValue": "64"
        },
        {
          "operationId": "Mth_06_01_n",
          "resultGroups": [
            {
              "groupingId": "AnlsGrouping_47_Trt01An",
              "groupId": "AnlsGrouping_47_Trt01An_01"
            },
            {
              "groupingId": "AnlsGrouping_48_Param",
              "groupValue": "Alkaline Phosphatase (U/L)"
            },
            {
              "groupingId": "AnlsGrouping_50_Aval",
              "groupValue": "Week 8"
            }
          ],
          "rawValue": "60",
          "formattedValue": "60"
        },
        {
          "operationId": "Mth_06_01_n",
          "resultGroups": [
            {
              "groupingId": "AnlsGrouping_47_Trt01An",
              "groupId": "AnlsGrouping_47_Trt01An_01"
            },
            {
              "groupingId": "AnlsGrouping_48_Param",
              "groupValue": "Aspartate Aminotransferase (U/L)"
            },
            {
              "groupingId": "AnlsGrouping_50_Aval",
              "groupValue": "End of Treatment"
            }
          ],
          "rawValue": "82",
          "formattedValue": "82"
        },
        {
          "operationId": "Mth_06_01_n",
          "resultGroups": [
            {
              "groupingId": "AnlsGrouping_47_Trt01An",
              "groupId": "AnlsGrouping_47_Trt01An_01"
            },
            {
              "groupingId": "AnlsGrouping_48_Param",
              "groupValue": "Aspartate Aminotransferase (U/L)"
            },
            {
              "groupingId": "AnlsGrouping_50_Aval",
              "groupValue": "Week 12"
            }
          ],
          "rawValue": "51",
          "formattedValue": "51"
        },
        {
          "operationId": "Mth_06_01_n",
          "resultGroups": [
            {
              "groupingId": "AnlsGrouping_47_Trt01An",
              "groupId": "AnlsGrouping_47_Trt01An_01"
            },
            {
              "groupingId": "AnlsGrouping_48_Param",
              "groupValue": "Aspartate Aminotransferase (U/L)"
            },
            {
              "groupingId": "AnlsGrouping_50_Aval",
              "groupValue": "Week 16"
            }
          ],
          "rawValue": "42",
          "formattedValue": "42"
        },
        {
          "operationId": "Mth_06_01_n",
          "resultGroups": [
            {
              "groupingId": "AnlsGrouping_47_Trt01An",
              "groupId": "AnlsGrouping_47_Trt01An_01"
            },
            {
              "groupingId": "AnlsGrouping_48_Param",
              "groupValue": "Aspartate Aminotransferase (U/L)"
            },
            {
              "groupingId": "AnlsGrouping_50_Aval",
              "groupValue": "Week 2"
            }
          ],
          "rawValue": "80",
          "formattedValue": "80"
        },
        {
          "operationId": "Mth_06_01_n",
          "resultGroups": [
            {
              "groupingId": "AnlsGrouping_47_Trt01An",
              "groupId": "AnlsGrouping_47_Trt01An_01"
            },
            {
              "groupingId": "AnlsGrouping_48_Param",
              "groupValue": "Aspartate Aminotransferase (U/L)"
            },
            {
              "groupingId": "AnlsGrouping_50_Aval",
              "groupValue": "Week 20"
            }
          ],
          "rawValue": "30",
          "formattedValue": "30"
        },
        {
          "operationId": "Mth_06_01_n",
          "resultGroups": [
            {
              "groupingId": "AnlsGrouping_47_Trt01An",
              "groupId": "AnlsGrouping_47_Trt01An_01"
            },
            {
              "groupingId": "AnlsGrouping_48_Param",
              "groupValue": "Aspartate Aminotransferase (U/L)"
            },
            {
              "groupingId": "AnlsGrouping_50_Aval",
              "groupValue": "Week 24"
            }
          ],
          "rawValue": "26",
          "formattedValue": "26"
        },
        {
          "operationId": "Mth_06_01_n",
          "resultGroups": [
            {
              "groupingId": "AnlsGrouping_47_Trt01An",
              "groupId": "AnlsGrouping_47_Trt01An_01"
            },
            {
              "groupingId": "AnlsGrouping_48_Param",
              "groupValue": "Aspartate Aminotransferase (U/L)"
            },
            {
              "groupingId": "AnlsGrouping_50_Aval",
              "groupValue": "Week 26"
            }
          ],
          "rawValue": "25",
          "formattedValue": "25"
        },
        {
          "operationId": "Mth_06_01_n",
          "resultGroups": [
            {
              "groupingId": "AnlsGrouping_47_Trt01An",
              "groupId": "AnlsGrouping_47_Trt01An_01"
            },
            {
              "groupingId": "AnlsGrouping_48_Param",
              "groupValue": "Aspartate Aminotransferase (U/L)"
            },
            {
              "groupingId": "AnlsGrouping_50_Aval",
              "groupValue": "Week 4"
            }
          ],
          "rawValue": "72",
          "formattedValue": "72"
        },
        {
          "operationId": "Mth_06_01_n",
          "resultGroups": [
            {
              "groupingId": "AnlsGrouping_47_Trt01An",
              "groupId": "AnlsGrouping_47_Trt01An_01"
            },
            {
              "groupingId": "AnlsGrouping_48_Param",
              "groupValue": "Aspartate Aminotransferase (U/L)"
            },
            {
              "groupingId": "AnlsGrouping_50_Aval",
              "groupValue": "Week 6"
            }
          ],
          "rawValue": "62",
          "formattedValue": "62"
        },
        {
          "operationId": "Mth_06_01_n",
          "resultGroups": [
            {
              "groupingId": "AnlsGrouping_47_Trt01An",
              "groupId": "AnlsGrouping_47_Trt01An_01"
            },
            {
              "groupingId": "AnlsGrouping_48_Param",
              "groupValue": "Aspartate Aminotransferase (U/L)"
            },
            {
              "groupingId": "AnlsGrouping_50_Aval",
              "groupValue": "Week 8"
            }
          ],
          "rawValue": "60",
          "formattedValue": "60"
        },
        {
          "operationId": "Mth_06_01_n",
          "resultGroups": [
            {
              "groupingId": "AnlsGrouping_47_Trt01An",
              "groupId": "AnlsGrouping_47_Trt01An_01"
            },
            {
              "groupingId": "AnlsGrouping_48_Param",
              "groupValue": "Bilirubin (umol/L)"
            },
            {
              "groupingId": "AnlsGrouping_50_Aval",
              "groupValue": "End of Treatment"
            }
          ],
          "rawValue": "80",
          "formattedValue": "80"
        },
        {
          "operationId": "Mth_06_01_n",
          "resultGroups": [
            {
              "groupingId": "AnlsGrouping_47_Trt01An",
              "groupId": "AnlsGrouping_47_Trt01An_01"
            },
            {
              "groupingId": "AnlsGrouping_48_Param",
              "groupValue": "Bilirubin (umol/L)"
            },
            {
              "groupingId": "AnlsGrouping_50_Aval",
              "groupValue": "Week 12"
            }
          ],
          "rawValue": "51",
          "formattedValue": "51"
        },
        {
          "operationId": "Mth_06_01_n",
          "resultGroups": [
            {
              "groupingId": "AnlsGrouping_47_Trt01An",
              "groupId": "AnlsGrouping_47_Trt01An_01"
            },
            {
              "groupingId": "AnlsGrouping_48_Param",
              "groupValue": "Bilirubin (umol/L)"
            },
            {
              "groupingId": "AnlsGrouping_50_Aval",
              "groupValue": "Week 16"
            }
          ],
          "rawValue": "42",
          "formattedValue": "42"
        },
        {
          "operationId": "Mth_06_01_n",
          "resultGroups": [
            {
              "groupingId": "AnlsGrouping_47_Trt01An",
              "groupId": "AnlsGrouping_47_Trt01An_01"
            },
            {
              "groupingId": "AnlsGrouping_48_Param",
              "groupValue": "Bilirubin (umol/L)"
            },
            {
              "groupingId": "AnlsGrouping_50_Aval",
              "groupValue": "Week 2"
            }
          ],
          "rawValue": "79",
          "formattedValue": "79"
        },
        {
          "operationId": "Mth_06_01_n",
          "resultGroups": [
            {
              "groupingId": "AnlsGrouping_47_Trt01An",
              "groupId": "AnlsGrouping_47_Trt01An_01"
            },
            {
              "groupingId": "AnlsGrouping_48_Param",
              "groupValue": "Bilirubin (umol/L)"
            },
            {
              "groupingId": "AnlsGrouping_50_Aval",
              "groupValue": "Week 20"
            }
          ],
          "rawValue": "30",
          "formattedValue": "30"
        },
        {
          "operationId": "Mth_06_01_n",
          "resultGroups": [
            {
              "groupingId": "AnlsGrouping_47_Trt01An",
              "groupId": "AnlsGrouping_47_Trt01An_01"
            },
            {
              "groupingId": "AnlsGrouping_48_Param",
              "groupValue": "Bilirubin (umol/L)"
            },
            {
              "groupingId": "AnlsGrouping_50_Aval",
              "groupValue": "Week 24"
            }
          ],
          "rawValue": "25",
          "formattedValue": "25"
        },
        {
          "operationId": "Mth_06_01_n",
          "resultGroups": [
            {
              "groupingId": "AnlsGrouping_47_Trt01An",
              "groupId": "AnlsGrouping_47_Trt01An_01"
            },
            {
              "groupingId": "AnlsGrouping_48_Param",
              "groupValue": "Bilirubin (umol/L)"
            },
            {
              "groupingId": "AnlsGrouping_50_Aval",
              "groupValue": "Week 26"
            }
          ],
          "rawValue": "25",
          "formattedValue": "25"
        },
        {
          "operationId": "Mth_06_01_n",
          "resultGroups": [
            {
              "groupingId": "AnlsGrouping_47_Trt01An",
              "groupId": "AnlsGrouping_47_Trt01An_01"
            },
            {
              "groupingId": "AnlsGrouping_48_Param",
              "groupValue": "Bilirubin (umol/L)"
            },
            {
              "groupingId": "AnlsGrouping_50_Aval",
              "groupValue": "Week 4"
            }
          ],
          "rawValue": "71",
          "formattedValue": "71"
        },
        {
          "operationId": "Mth_06_01_n",
          "resultGroups": [
            {
              "groupingId": "AnlsGrouping_47_Trt01An",
              "groupId": "AnlsGrouping_47_Trt01An_01"
            },
            {
              "groupingId": "AnlsGrouping_48_Param",
              "groupValue": "Bilirubin (umol/L)"
            },
            {
              "groupingId": "AnlsGrouping_50_Aval",
              "groupValue": "Week 6"
            }
          ],
          "rawValue": "62",
          "formattedValue": "62"
        },
        {
          "operationId": "Mth_06_01_n",
          "resultGroups": [
            {
              "groupingId": "AnlsGrouping_47_Trt01An",
              "groupId": "AnlsGrouping_47_Trt01An_01"
            },
            {
              "groupingId": "AnlsGrouping_48_Param",
              "groupValue": "Bilirubin (umol/L)"
            },
            {
              "groupingId": "AnlsGrouping_50_Aval",
              "groupValue": "Week 8"
            }
          ],
          "rawValue": "60",
          "formattedValue": "60"
        },
        {
          "operationId": "Mth_06_01_n",
          "resultGroups": [
            {
              "groupingId": "AnlsGrouping_47_Trt01An",
              "groupId": "AnlsGrouping_47_Trt01An_01"
            },
            {
              "groupingId": "AnlsGrouping_48_Param",
              "groupValue": "Blood Urea Nitrogen (mmol/L)"
            },
            {
              "groupingId": "AnlsGrouping_50_Aval",
              "groupValue": "End of Treatment"
            }
          ],
          "rawValue": "82",
          "formattedValue": "82"
        },
        {
          "operationId": "Mth_06_01_n",
          "resultGroups": [
            {
              "groupingId": "AnlsGrouping_47_Trt01An",
              "groupId": "AnlsGrouping_47_Trt01An_01"
            },
            {
              "groupingId": "AnlsGrouping_48_Param",
              "groupValue": "Blood Urea Nitrogen (mmol/L)"
            },
            {
              "groupingId": "AnlsGrouping_50_Aval",
              "groupValue": "Week 12"
            }
          ],
          "rawValue": "52",
          "formattedValue": "52"
        },
        {
          "operationId": "Mth_06_01_n",
          "resultGroups": [
            {
              "groupingId": "AnlsGrouping_47_Trt01An",
              "groupId": "AnlsGrouping_47_Trt01An_01"
            },
            {
              "groupingId": "AnlsGrouping_48_Param",
              "groupValue": "Blood Urea Nitrogen (mmol/L)"
            },
            {
              "groupingId": "AnlsGrouping_50_Aval",
              "groupValue": "Week 16"
            }
          ],
          "rawValue": "42",
          "formattedValue": "42"
        },
        {
          "operationId": "Mth_06_01_n",
          "resultGroups": [
            {
              "groupingId": "AnlsGrouping_47_Trt01An",
              "groupId": "AnlsGrouping_47_Trt01An_01"
            },
            {
              "groupingId": "AnlsGrouping_48_Param",
              "groupValue": "Blood Urea Nitrogen (mmol/L)"
            },
            {
              "groupingId": "AnlsGrouping_50_Aval",
              "groupValue": "Week 2"
            }
          ],
          "rawValue": "80",
          "formattedValue": "80"
        },
        {
          "operationId": "Mth_06_01_n",
          "resultGroups": [
            {
              "groupingId": "AnlsGrouping_47_Trt01An",
              "groupId": "AnlsGrouping_47_Trt01An_01"
            },
            {
              "groupingId": "AnlsGrouping_48_Param",
              "groupValue": "Blood Urea Nitrogen (mmol/L)"
            },
            {
              "groupingId": "AnlsGrouping_50_Aval",
              "groupValue": "Week 20"
            }
          ],
          "rawValue": "31",
          "formattedValue": "31"
        },
        {
          "operationId": "Mth_06_01_n",
          "resultGroups": [
            {
              "groupingId": "AnlsGrouping_47_Trt01An",
              "groupId": "AnlsGrouping_47_Trt01An_01"
            },
            {
              "groupingId": "AnlsGrouping_48_Param",
              "groupValue": "Blood Urea Nitrogen (mmol/L)"
            },
            {
              "groupingId": "AnlsGrouping_50_Aval",
              "groupValue": "Week 24"
            }
          ],
          "rawValue": "27",
          "formattedValue": "27"
        },
        {
          "operationId": "Mth_06_01_n",
          "resultGroups": [
            {
              "groupingId": "AnlsGrouping_47_Trt01An",
              "groupId": "AnlsGrouping_47_Trt01An_01"
            },
            {
              "groupingId": "AnlsGrouping_48_Param",
              "groupValue": "Blood Urea Nitrogen (mmol/L)"
            },
            {
              "groupingId": "AnlsGrouping_50_Aval",
              "groupValue": "Week 26"
            }
          ],
          "rawValue": "25",
          "formattedValue": "25"
        },
        {
          "operationId": "Mth_06_01_n",
          "resultGroups": [
            {
              "groupingId": "AnlsGrouping_47_Trt01An",
              "groupId": "AnlsGrouping_47_Trt01An_01"
            },
            {
              "groupingId": "AnlsGrouping_48_Param",
              "groupValue": "Blood Urea Nitrogen (mmol/L)"
            },
            {
              "groupingId": "AnlsGrouping_50_Aval",
              "groupValue": "Week 4"
            }
          ],
          "rawValue": "72",
          "formattedValue": "72"
        },
        {
          "operationId": "Mth_06_01_n",
          "resultGroups": [
            {
              "groupingId": "AnlsGrouping_47_Trt01An",
              "groupId": "AnlsGrouping_47_Trt01An_01"
            },
            {
              "groupingId": "AnlsGrouping_48_Param",
              "groupValue": "Blood Urea Nitrogen (mmol/L)"
            },
            {
              "groupingId": "AnlsGrouping_50_Aval",
              "groupValue": "Week 6"
            }
          ],
          "rawValue": "64",
          "formattedValue": "64"
        },
        {
          "operationId": "Mth_06_01_n",
          "resultGroups": [
            {
              "groupingId": "AnlsGrouping_47_Trt01An",
              "groupId": "AnlsGrouping_47_Trt01An_01"
            },
            {
              "groupingId": "AnlsGrouping_48_Param",
              "groupValue": "Blood Urea Nitrogen (mmol/L)"
            },
            {
              "groupingId": "AnlsGrouping_50_Aval",
              "groupValue": "Week 8"
            }
          ],
          "rawValue": "60",
          "formattedValue": "60"
        },
        {
          "operationId": "Mth_06_01_n",
          "resultGroups": [
            {
              "groupingId": "AnlsGrouping_47_Trt01An",
              "groupId": "AnlsGrouping_47_Trt01An_01"
            },
            {
              "groupingId": "AnlsGrouping_48_Param",
              "groupValue": "Calcium (mmol/L)"
            },
            {
              "groupingId": "AnlsGrouping_50_Aval",
              "groupValue": "End of Treatment"
            }
          ],
          "rawValue": "82",
          "formattedValue": "82"
        },
        {
          "operationId": "Mth_06_01_n",
          "resultGroups": [
            {
              "groupingId": "AnlsGrouping_47_Trt01An",
              "groupId": "AnlsGrouping_47_Trt01An_01"
            },
            {
              "groupingId": "AnlsGrouping_48_Param",
              "groupValue": "Calcium (mmol/L)"
            },
            {
              "groupingId": "AnlsGrouping_50_Aval",
              "groupValue": "Week 12"
            }
          ],
          "rawValue": "52",
          "formattedValue": "52"
        },
        {
          "operationId": "Mth_06_01_n",
          "resultGroups": [
            {
              "groupingId": "AnlsGrouping_47_Trt01An",
              "groupId": "AnlsGrouping_47_Trt01An_01"
            },
            {
              "groupingId": "AnlsGrouping_48_Param",
              "groupValue": "Calcium (mmol/L)"
            },
            {
              "groupingId": "AnlsGrouping_50_Aval",
              "groupValue": "Week 16"
            }
          ],
          "rawValue": "42",
          "formattedValue": "42"
        },
        {
          "operationId": "Mth_06_01_n",
          "resultGroups": [
            {
              "groupingId": "AnlsGrouping_47_Trt01An",
              "groupId": "AnlsGrouping_47_Trt01An_01"
            },
            {
              "groupingId": "AnlsGrouping_48_Param",
              "groupValue": "Calcium (mmol/L)"
            },
            {
              "groupingId": "AnlsGrouping_50_Aval",
              "groupValue": "Week 2"
            }
          ],
          "rawValue": "80",
          "formattedValue": "80"
        },
        {
          "operationId": "Mth_06_01_n",
          "resultGroups": [
            {
              "groupingId": "AnlsGrouping_47_Trt01An",
              "groupId": "AnlsGrouping_47_Trt01An_01"
            },
            {
              "groupingId": "AnlsGrouping_48_Param",
              "groupValue": "Calcium (mmol/L)"
            },
            {
              "groupingId": "AnlsGrouping_50_Aval",
              "groupValue": "Week 20"
            }
          ],
          "rawValue": "31",
          "formattedValue": "31"
        },
        {
          "operationId": "Mth_06_01_n",
          "resultGroups": [
            {
              "groupingId": "AnlsGrouping_47_Trt01An",
              "groupId": "AnlsGrouping_47_Trt01An_01"
            },
            {
              "groupingId": "AnlsGrouping_48_Param",
              "groupValue": "Calcium (mmol/L)"
            },
            {
              "groupingId": "AnlsGrouping_50_Aval",
              "groupValue": "Week 24"
            }
          ],
          "rawValue": "27",
          "formattedValue": "27"
        },
        {
          "operationId": "Mth_06_01_n",
          "resultGroups": [
            {
              "groupingId": "AnlsGrouping_47_Trt01An",
              "groupId": "AnlsGrouping_47_Trt01An_01"
            },
            {
              "groupingId": "AnlsGrouping_48_Param",
              "groupValue": "Calcium (mmol/L)"
            },
            {
              "groupingId": "AnlsGrouping_50_Aval",
              "groupValue": "Week 26"
            }
          ],
          "rawValue": "25",
          "formattedValue": "25"
        },
        {
          "operationId": "Mth_06_01_n",
          "resultGroups": [
            {
              "groupingId": "AnlsGrouping_47_Trt01An",
              "groupId": "AnlsGrouping_47_Trt01An_01"
            },
            {
              "groupingId": "AnlsGrouping_48_Param",
              "groupValue": "Calcium (mmol/L)"
